Time (sec),Vehicle speed (MPH),Fuel rate (l/hr),Total CO2 (kg), Rotation Rate X (deg/s), Rotation Rate Y (deg/s), Rotation Rate Z (deg/s), Engine coolant temperature (°C),Engine coolant temperature 1 (°C),Acceleration (m/s²),Engine Torque (kg•m),Max Speed (MPH),Total Trip CO2 (kg),Instant CO2 rate (g/km),CO2 flow (g/s), Accel X (m/s²), Accel Y (m/s²), Accel Z (m/s²), Roll (deg), Pitch (deg),Magnetometer X (µT), Magnetometer Y (µT), Magnetometer Z (µT),Calculated load value (%), Intake manifold absolute pressure (bar), Engine RPM (RPM), Intake air temperature (°C), Ambient air temperature (°C), Absolute throttle position B (%), Accelerator pedal position D (%), Accelerator pedal position E (%), Intake manifold absolute pressure (bar), Mass air flow rate (g/s), Boost (bar),Engine Power (kW),Average Trip CO2 Rate (g/km),Altitude (m),Instant fuel economy (l/100 km),Total fuel economy (l/100 km), Time since engine start (sec), Number of warm-ups since DTCs cleared, Distance traveled since DTCs cleared (km), Barometric pressure (bar),O2 sensor lambda wide range (current probe)  (Bank 1  Sensor 1),O2 sensor current wide range (Bank 1  Sensor 1) (mA),O2 sensor lambda wide range (current probe)  (Bank 1  Sensor 2),O2 sensor current wide range (Bank 1  Sensor 2) (mA),O2 sensor lambda wide range (current probe)  (Bank 1  Sensor 3),O2 sensor current wide range (Bank 1  Sensor 3) (mA),O2 sensor lambda wide range (current probe)  (Bank 1  Sensor 4),O2 sensor current wide range (Bank 1  Sensor 4) (mA),O2 sensor lambda wide range (current probe)  (Bank 2  Sensor 1),O2 sensor current wide range (Bank 2  Sensor 1) (mA),O2 sensor lambda wide range (current probe)  (Bank 2  Sensor 2),O2 sensor current wide range (Bank 2  Sensor 2) (mA),O2 sensor lambda wide range (current probe)  (Bank 2  Sensor 3),O2 sensor current wide range (Bank 2  Sensor 3) (mA),O2 sensor lambda wide range (current probe)  (Bank 2  Sensor 4),O2 sensor current wide range (Bank 2  Sensor 4) (mA), Control module voltage (V), Absolute throttle position C (%), Mass air flow sensor B (g/s), Relative throttle B position (%), Commanded boost pressure A (bar), Boost pressure sensor A (bar), Commanded boost pressure B (bar), Boost pressure sensor B (bar), Boost pressure A control status, Boost pressure B control status,Charge air cooler temperature bank 1  sensor 1 (°C),Charge air cooler temperature bank 1  sensor 2 (°C), Manifold surface temperature (°C), Intake manifold absolute pressure A (bar), Intake manifold absolute pressure B (bar),Total run time with EI-AECD #11 Timer 1 active (sec),Total run time with EI-AECD #11 Timer 2 active (sec),Total run time with EI-AECD #12 Timer 1 active (sec),Total run time with EI-AECD #12 Timer 2 active (sec), Diesel aftertreatment status,O2 sensor concentration bank 1 sensor 1 (%),O2 sensor concentration bank 1 sensor 2 (%),O2 sensor concentration bank 2 sensor 1 (%),O2 sensor concentration bank 2 sensor 2 (%), Absolute throttle position G (%),Target SCR Catalyst NH3 Storage A (g/L),Actual/Modelled SCR Catalyst NH3 Storage A (g/L),Target SCR Catalyst NH3 Storage B (g/L),Actual/Modelled SCR Catalyst NH3 Storage B (g/L), Hydrocarbon Doser Flow Rate (g/min), Hydrocarbon Doser Injector Duty Cycle (%),O2 sensor concentration bank 1 sensor 3 (%),O2 sensor concentration bank 1 sensor 4 (%),O2 sensor concentration bank 2 sensor 3 (%),O2 sensor concentration bank 2 sensor 4 (%),O2 sensor lambda bank 1 sensor 3,O2 sensor lambda bank 1 sensor 4,O2 sensor lambda bank 2 sensor 3,O2 sensor lambda bank 2 sensor 4, Engine Fuel Rate (g/s), Vehicle Fuel Rate (g/s), Engine Exhaust Flow Rate (g/s),Fuel System A Use Percentage Bank 1 (%),Fuel System A Use Percentage Bank 2 (%), Cylinder Fuel Rate, Transmission Actual Gear Status, Transmission Actual Gear Ratio, Vehicle Odometer Reading (km), Motorcycle ABS Disable Switch State, Maximum Current Vehicle Speed Limit (MPH), Alternative Fuel Tank Pressure (bar), Alternative Fuel Tank Temperature (°C),Crankcase Pressure Sensor (inH2O),Fuel System Status Bank 1,Fuel System Status Bank 2,Short Term Fuel Trim Bank 1 (%),Long Term Fuel Trim Bank 1 (%),Short Term Fuel Trim Bank 2 (%),Long Term Fuel Trim Bank 2 (%),O2 Sensor Concentration Bank 1 Sensor 5 (%),O2 Sensor Concentration Bank 1 Sensor 6 (%),O2 Sensor Concentration Bank 2 Sensor 5 (%),O2 Sensor Concentration Bank 2 Sensor 6 (%),O2 Sensor Lambda Bank 1 Sensor 5,O2 Sensor Lambda Bank 1 Sensor 6,O2 Sensor Lambda Bank 2 Sensor 5,O2 Sensor Lambda Bank 2 Sensor 6, Input voltage read by the scan tool (V), Acceleration (Avg) (m/s²), A/F Commanded, A/F Actual,Trip Distance (km), Trip Fuel (gal),Trip Fuel Economy (l/100 km),Trip Duration (min), Idling Count, Seconds Idling (sec)
0.000,0,0,0,-2.985947,-3.144394,-1.063126,0,0,0,0,0,0,0,0,-0.02724499,1.986506,3.534219,-2.530467,-59.08125,-9.650177,-25.12897,-5.873993,0,0,0,0,0,0,0,0,0,0,0,0,0,344.9,0,0,0,0,0,0,0,0,0,0,0,0,0,0,0,0,0,0,0,0,0,0,0,0,0,0,0,0,0,0,0,0,0,0,0,0,0,0,0,0,0,0,0,0,0,0,0,0,0,0,0,0,0,0,0,0,0,0,0,0,0,0,0,0,0,0,0,0,0,0,0,0,0,0,0,0,0,0,0,0,0,0,0,0,0,0,0,0,0,0,0,0,0,0,0,0,0,0,0
0.999,0,0,0,-5.7798,-17.7585,1.740982,0,0,0,0,0,0,0,0,-1.218096,1.389524,1.155238,-9.844643,-55.09222,-8.113045,-25.0264,-5.885651,0,0,0,0,0,0,0,0,0,0,0,0,0,344.9,0,0,0,0,0,0,0,0,0,0,0,0,0,0,0,0,0,0,0,0,0,0,0,0,0,0,0,0,0,0,0,0,0,0,0,0,0,0,0,0,0,0,0,0,0,0,0,0,0,0,0,0,0,0,0,0,0,0,0,0,0,0,0,0,0,0,0,0,0,0,0,0,0,0,0,0,0,0,0,0,0,0,0,0,0,0,0,0,0,0,0,0,0,0,0,0,0,0,0
2.000,0,0,0,-11.58853,-4.220688,-2.949219,0,0,0,0,0,0,0,0,-0.2454232,0.3662527,0.1622227,-8.568158,-58.12843,-8.182274,-24.39732,-7.3647,0,0,0,0,0,0,0,0,0,0,0,0,0,344.9,0,0,0,0,0,0,0,0,0,0,0,0,0,0,0,0,0,0,0,0,0,0,0,0,0,0,0,0,0,0,0,0,0,0,0,0,0,0,0,0,0,0,0,0,0,0,0,0,0,0,0,0,0,0,0,0,0,0,0,0,0,0,0,0,0,0,0,0,0,0,0,0,0,0,0,0,0,0,0,0,0,0,0,0,0,0,0,0,0,0,0,0,0,0,0,0,0,0,0
3.000,0,0,0,41.0809,55.43025,-19.35445,59,59,0,0,0,0,0,0,-1.458995,0.4160805,-0.7616261,-22.26959,-49.01618,0.8667679,-26.80572,-3.900574,31.76471,0.97,750,25,25,0,14.90196,14.90196,0,9.367931,-0.03,0,0,344.9,0,5.34775,570,70,4169,0.97,2.083272,1.890625,3.070984,-0.00390625,0,0,0,0,0,0,0,0,0,0,0,0,12.68,0,0,0,0,0,0,0,0,0,41,43,0,0,0,0,0,0,0,0,0,0,0,0,0,0,0,0,0,0,0,0,0,0,0,0,0,0,0,0,0,0,0,0,0,0,0,0,0,0,0,0,0,0,0,0,0,0,0,0,0,0,0,0,0,0,0,12.8,0,0,30.20744,0,0,0,0,1,6E-06
4.000,0,0,0,8.254425,14.04732,-4.366928,59,59,0,0,0,0,0,0,1.381619,-0.892248,1.186907,-3.357451,-64.76589,-9.04908,-23.19987,-11.07208,31.76471,0.97,750,25,25,0,14.90196,14.90196,0,9.367931,-0.03,0,0,344.9,0,5.34775,570,70,4169,0.97,2.083272,1.890625,3.070984,-0.00390625,0,0,0,0,0,0,0,0,0,0,0,0,12.68,0,0,0,0,0,0,0,0,0,41,43,0,0,0,0,0,0,0,0,0,0,0,0,0,0,0,0,0,0,0,0,0,0,0,0,0,0,0,0,0,0,0,0,0,0,0,0,0,0,0,0,0,0,0,0,0,0,0,0,0,0,0,0,0,0,0,12.8,0,0,30.20744,0,0,0,0,1,6E-06
5.000,0,0.6089703,11.88435,13.23392,61.38725,85.76834,59,59,0,2.450168,0,0.001517782,0,0.4549129,-2.601955,1.273427,0.5558177,-5.746691,-55.67035,-11.83393,-23.95636,-0.009353638,31.37255,0.97,750,25,25,0,14.90196,14.90196,0.6897858,9.21083,0,1.835871,0,344.9,0,5.348433,570,70,4169,0.97,2.1228,1.9375,3.038776,-0.00390625,0,0,0,0,0,0,0,0,0,0,0,0,12.68,0,0,0,0,0,0,0,0,0,41,43,0,0,0,0,0,0,0,0,0,0,0,0,0,0,0,0,0,0,0,0,0,0,0,0,0,0,0,0,0,0,0,0,0,0,0,0,0,0,0,0,0,0,0,0,0,0,0,0,0,0,0,0,0,0,0,12.8,0,0,30.7806,0,0.0001490945,0,0.08749612,1,1.711229
6.003,0,0.6089703,11.88435,7.684906,-11.42383,3.369156,59,59,0,2.450168,0,0.001517782,0,0.4549129,-0.52982,0.8072634,-0.7405364,-1.817705,-51.56791,-31.36938,-8.437401,3.643158,31.37255,0.97,750,25,25,0,14.90196,14.90196,0.6897858,9.21083,0,1.835871,0,344.9,0,5.348433,570,70,4169,0.97,2.1228,1.9375,3.038776,-0.00390625,0,0,0,0,0,0,0,0,0,0,0,0,12.68,0,0,0,0,0,0,0,0,0,41,43,0,0,0,0,0,0,0,0,0,0,0,0,0,0,0,0,0,0,0,0,0,0,0,0,0,0,0,0,0,0,0,0,0,0,0,0,0,0,0,0,0,0,0,0,0,0,0,0,0,0,0,0,0,0,0,12.8,0,0,30.7806,0,0.0001490945,0,0.08749612,1,1.711229
7.001,0,0.6042069,11.88514,6.400558,9.701248,-6.216553,59,59,0,2.427766,0,0.002305469,0,0.4513545,0.3256328,0.3806403,0.1499265,-2.673028,-49.46691,-28.34006,-10.52528,3.886444,31.37255,0.97,751,25,25,0,14.90196,14.90196,0.6929452,9.223111,0,1.821511,0,344.9,0,5.348787,570,70,4169,0.97,2.148664,1.953125,3.079768,-0.00390625,0,0,0,0,0,0,0,0,0,0,0,0,12.68,0,0,0,0,0,0,0,0,0,41,43,0,0,0,0,0,0,0,0,0,0,0,0,0,0,0,0,0,0,0,0,0,0,0,0,0,0,0,0,0,0,0,0,0,0,0,0,0,0,0,0,0,0,0,0,0,0,0,0,0,0,0,0,0,0,0,12.8,0,0,31.15563,0,0.0002264705,0,0.1176829,1,3.522237
8.001,0,0.6216536,11.88598,-2.656372,-2.792404,-0.1737061,59,59,0,2.499532,0,0.003140806,0,0.4643876,-0.2683675,0.439063,-0.4497575,-3.948286,-47.13776,-26.66892,-11.04539,3.437698,31.37255,0.97,750.5,25,25,0,14.90196,14.90196,0.7120048,9.21697,0,1.874108,0,344.9,0,5.349164,570,70,4169,0.97,2.162328,1.96875,3.041216,-0.00390625,0,0,0,0,0,0,0,0,0,0,0,0,12.68,0,0,0,0,0,0,0,0,0,41,43,0,0,0,0,0,0,0,0,0,0,0,0,0,0,0,0,0,0,0,0,0,0,0,0,0,0,0,0,0,0,0,0,0,0,0,0,0,0,0,0,0,0,0,0,0,0,0,0,0,0,0,0,0,0,0,12.8,0,0,31.35376,0,0.0003085271,0,0.1467361,1,5.26524
9.002,0,0.6216536,11.88598,18.56715,26.5186,-6.516983,59,59,0,2.499532,0,0.003140806,0,0.4643876,-0.5227163,0.2629399,-0.4994897,-6.218455,-45.41793,-25.23705,-12.0166,2.866379,31.37255,0.97,750.5,25,25,0,14.90196,14.90196,0.7120048,9.21697,0,1.874108,0,344.9,0,5.349164,570,70,4169,0.97,2.162328,1.96875,3.041216,-0.00390625,0,0,0,0,0,0,0,0,0,0,0,0,12.68,0,0,0,0,0,0,0,0,0,41,43,0,0,0,0,0,0,0,0,0,0,0,0,0,0,0,0,0,0,0,0,0,0,0,0,0,0,0,0,0,0,0,0,0,0,0,0,0,0,0,0,0,0,0,0,0,0,0,0,0,0,0,0,0,0,0,12.8,0,0,31.35376,0,0.0003085271,0,0.1467361,1,5.26524
10.002,0,0.6372638,11.88681,4.761551,6.947571,14.52252,59,59,0,2.555488,0,0.003970321,0,0.4760487,0.4544257,-0.02613284,0.007768766,-2.60135,-47.60802,-27.24521,-10.38122,4.036316,30.98039,0.97,752.5,25,25,0,14.90196,14.90196,0.7303702,9.241532,0,1.921168,0,344.9,0,5.349536,570,70,4169,0.97,2.129632,1.9375,3.045608,-0.00390625,0,0,0,0,0,0,0,0,0,0,0,0,12.68,0,0,0,0,0,0,0,0,0,41,43,0,0,0,0,0,0,0,0,0,0,0,0,0,0,0,0,0,0,0,0,0,0,0,0,0,0,0,0,0,0,0,0,0,0,0,0,0,0,0,0,0,0,0,0,0,0,0,0,0,0,0,0,0,0,0,12.8,0,0,30.87966,0,0.0003900119,0,0.1822218,1,7.394329
11.002,0,0.6372638,11.88681,-11.31757,2.187225,-10.20325,59,59,0,2.555488,0,0.003970321,0,0.4760487,0.3386194,0.09492263,-0.2784228,-0.3776154,-47.95379,-37.0372,7.021385,-1.204712,30.98039,0.97,752.5,25,25,0,14.90196,14.90196,0.7303702,9.241532,0,1.921168,0,344.9,0,5.349536,570,70,4169,0.97,2.129632,1.9375,3.045608,-0.00390625,0,0,0,0,0,0,0,0,0,0,0,0,12.68,0,0,0,0,0,0,0,0,0,41,43,0,0,0,0,0,0,0,0,0,0,0,0,0,0,0,0,0,0,0,0,0,0,0,0,0,0,0,0,0,0,0,0,0,0,0,0,0,0,0,0,0,0,0,0,0,0,0,0,0,0,0,0,0,0,0,12.8,0,0,30.87966,0,0.0003900119,0,0.1822218,1,7.394329
12.003,0,0.6011882,11.88776,13.78244,9.573135,14.92545,59,59,0,2.417245,0,0.004925076,0,0.4490995,-0.2046928,0.1271571,-0.1008485,-0.43669,-47.01329,-36.37132,7.490925,-1.254379,30.98039,0.97,750.5,25,25,0,14.90196,14.90196,0.6958911,9.21697,0,1.81241,0,344.9,0,5.349967,570,70,4169,0.97,2.133048,1.9375,3.0012,-0.00390625,0,0,0,0,0,0,0,0,0,0,0,0,12.68,0,0,0,0,0,0,0,0,0,41,43,0,0,0,0,0,0,0,0,0,0,0,0,0,0,0,0,0,0,0,0,0,0,0,0,0,0,0,0,0,0,0,0,0,0,0,0,0,0,0,0,0,0,0,0,0,0,0,0,0,0,0,0,0,0,0,12.8,0,0,30.9292,0,0.0004837992,0,0.2113283,1,9.140702
13.003,0,0.6011882,11.88776,-2.659958,5.369812,-0.7506714,59,59,0,2.417245,0,0.004925076,0,0.4490995,0.2413655,0.2551177,-0.1374841,0.877779,-47.48347,-36.61555,11.88967,-3.712173,30.98039,0.97,750.5,25,25,0,14.90196,14.90196,0.6958911,9.21697,0,1.81241,0,344.9,0,5.349967,570,70,4169,0.97,2.133048,1.9375,3.0012,-0.00390625,0,0,0,0,0,0,0,0,0,0,0,0,12.68,0,0,0,0,0,0,0,0,0,41,43,0,0,0,0,0,0,0,0,0,0,0,0,0,0,0,0,0,0,0,0,0,0,0,0,0,0,0,0,0,0,0,0,0,0,0,0,0,0,0,0,0,0,0,0,0,0,0,0,0,0,0,0,0,0,0,12.8,0,0,30.9292,0,0.0004837992,0,0.2113283,1,9.140702
14.003,0,0.6338319,11.88859,7.368362,-2.181198,3.61821,59,59,0,2.328239,0,0.005750646,0,0.473485,0.1659703,0.3147775,-0.2520966,0.8686686,-45.20011,-36.08879,12.00146,-3.089081,38.03922,0.96,821.5,25,25,0,26.66667,26.27451,0.7356322,9.98492,-0.01,1.910822,0,344.5,0,5.350338,570,70,4169,0.97,2.07888,1.882813,1.87392,-0.00390625,0,0,0,0,0,0,0,0,0,0,0,0,12.68,0,0,0,0,0,0,0,0,0,41,43,0,0,0,0,0,0,0,0,0,0,0,0,0,0,0,0,0,0,0,0,0,0,0,0,0,0,0,0,0,0,0,0,0,0,0,0,0,0,0,0,0,0,0,0,0,0,0,0,0,0,0,0,0,0,0,12.8,0,0,30.14376,0,0.0005648964,0,0.2412254,1,10.93458
15.003,0,0.6338319,11.88859,-6.874405,-2.522842,5.247635,59,59,0,2.328239,0,0.005750646,0,0.473485,0.3881081,-0.248412,0.3338119,2.406966,-46.30219,-36.66637,15.05135,-3.643829,38.03922,0.96,821.5,25,25,0,26.66667,26.27451,0.7356322,9.98492,-0.01,1.910822,0,344.5,0,5.350338,570,70,4169,0.97,2.07888,1.882813,1.87392,-0.00390625,0,0,0,0,0,0,0,0,0,0,0,0,12.68,0,0,0,0,0,0,0,0,0,41,43,0,0,0,0,0,0,0,0,0,0,0,0,0,0,0,0,0,0,0,0,0,0,0,0,0,0,0,0,0,0,0,0,0,0,0,0,0,0,0,0,0,0,0,0,0,0,0,0,0,0,0,0,0,0,0,12.8,0,0,30.14376,0,0.0005648964,0,0.2412254,1,10.93458
16.003,0.6213712,1.106695,11.89008,-89.68892,-51.64767,26.63449,59,59,0.07723952,3.344575,0.6213712,0.007241455,2976.203,0.8267231,1.491181,-0.07108361,9.329562,11.94748,-58.11491,-34.66166,37.2928,8.947067,56.86274,1.01,998.5,25,25,0,26.27451,25.88235,0.9556812,12.76836,0.04,3.336368,14497.74,344.4,110.6694,5.350976,570,70,4169,0.97,1.716296,1.523438,1.950048,-0.00390625,0,0,0,0,0,0,0,0,0,0,0,0,12.68,0,0,0,0,0,0,0,0,0,41,43,0,0,0,0,0,0,0,0,0,0,0,0,0,0,0,0,0,0,0,0,0,0,0,0,0,0,0,0,0,0,0,0,0,0,0,0,0,0,0,0,0,0,0,0,0,0,0,0,0,0,0,0,0,0,0,12.8,0.0154479,0,24.88629,0.0004994884,0.0007113414,539.0952,0.2708057,1,12.70938
17.003,0.6213712,1.106695,11.89008,-11.85797,-6.99086,12.35843,59,59,0.07723952,3.344575,0.6213712,0.007241455,2976.203,0.8267231,1.33198,0.2279576,-0.07990192,19.25368,-44.55584,-32.49875,36.7661,-0.09706116,56.86274,1.01,998.5,25,25,0,26.27451,25.88235,0.9556812,12.76836,0.04,3.336368,14497.74,344.3,110.6694,5.350976,570,70,4169,0.97,1.716296,1.523438,1.950048,-0.00390625,0,0,0,0,0,0,0,0,0,0,0,0,12.68,0,0,0,0,0,0,0,0,0,41,43,0,0,0,0,0,0,0,0,0,0,0,0,0,0,0,0,0,0,0,0,0,0,0,0,0,0,0,0,0,0,0,0,0,0,0,0,0,0,0,0,0,0,0,0,0,0,0,0,0,0,0,0,0,0,0,12.8,0.0154479,0,24.88629,0.0004994884,0.0007113414,539.0952,0.2708057,1,12.70938
18.003,3.106856,1.160034,11.89161,-23.81169,9.843903,3.37677,59,59,0.3909929,3.68475,3.106856,0.008770025,623.9291,0.8665681,-0.8427972,-0.1511294,0.6802125,11.9849,-52.66886,-37.1831,46.81997,-7.693039,40,1,950,25,25,0,20.39216,19.21569,0.5513393,12.02789,0.03,3.497169,2964.088,344.3,23.20066,5.351505,570,70,4169,0.97,2.161352,1.96875,2.380952,-0.00390625,0,0,0,0,0,0,0,0,0,0,0,0,12.68,0,0,0,0,0,0,0,0,0,41,43,0,0,0,0,0,0,0,0,0,0,0,0,0,0,0,0,0,0,0,0,0,0,0,0,0,0,0,0,0,0,0,0,0,0,0,0,0,0,0,0,0,0,0,0,0,0,0,0,0,0,0,0,0,0,0,12.8,0.07819859,0,31.3396,0.00295876,0.0008614956,110.2189,0.3057793,1,14.80782
19.003,3.106856,1.160034,11.89161,5.447678,17.14024,12.75179,59,59,0.3909929,3.68475,3.106856,0.008770025,623.9291,0.8665681,-0.1196297,-0.02771279,-0.1665653,15.5836,-54.41613,-36.10969,42.98159,2.709167,40,1,950,25,25,0,20.39216,19.21569,0.5513393,12.02789,0.03,3.497169,2964.088,344.3,23.20066,5.351505,570,70,4169,0.97,2.161352,1.96875,2.380952,-0.00390625,0,0,0,0,0,0,0,0,0,0,0,0,12.68,0,0,0,0,0,0,0,0,0,41,43,0,0,0,0,0,0,0,0,0,0,0,0,0,0,0,0,0,0,0,0,0,0,0,0,0,0,0,0,0,0,0,0,0,0,0,0,0,0,0,0,0,0,0,0,0,0,0,0,0,0,0,0,0,0,0,12.8,0.07819859,0,31.3396,0.00295876,0.0008614956,110.2189,0.3057793,1,14.80782
20.003,3.728227,1.469311,11.89392,2.383957,15.61401,23.25352,59,59,0.3799433,4.116793,3.728227,0.01107954,658.5626,1.097604,0.07412712,-0.2058964,-0.2466666,12.69227,-54.09186,-36.19329,46.69756,-4.361298,53.72549,1.01,1077,25,25,0,28.62745,28.62745,1.043409,13.77219,0.04,4.429552,1716.163,344.2,24.4885,5.352318,570,70,4169,0.97,1.396168,1.09375,1.43716,-0.00390625,0,0,0,0,0,0,0,0,0,0,0,0,12.68,0,0,0,0,0,0,0,0,0,41,43,0,0,0,0,0,0,0,0,0,0,0,0,0,0,0,0,0,0,0,0,0,0,0,0,0,0,0,0,0,0,0,0,0,0,0,0,0,0,0,0,0,0,0,0,0,0,0,0,0,0,0,0,0,0,0,12.8,0.09143656,0,20.24444,0.006455997,0.001088364,63.81511,0.33457,1,16.53525
21.004,3.728227,1.469311,11.89392,6.087814,9.932983,12.38338,59,59,0.3799433,4.116793,3.728227,0.01107954,658.5626,1.097604,-0.1749048,0.05508786,0.1935003,12.34053,-53.47817,-33.10654,51.54065,-8.249512,53.72549,1.01,1077,25,25,0,28.62745,28.62745,1.043409,13.77219,0.04,4.429552,1716.163,344.1,24.4885,5.352318,570,70,4169,0.97,1.396168,1.09375,1.43716,-0.00390625,0,0,0,0,0,0,0,0,0,0,0,0,12.68,0,0,0,0,0,0,0,0,0,41,43,0,0,0,0,0,0,0,0,0,0,0,0,0,0,0,0,0,0,0,0,0,0,0,0,0,0,0,0,0,0,0,0,0,0,0,0,0,0,0,0,0,0,0,0,0,0,0,0,0,0,0,0,0,0,0,12.8,0.09143656,0,20.24444,0.006455997,0.001088364,63.81511,0.33457,1,16.53525
22.004,6.213712,1.828816,11.89629,-7.805206,7.188751,8.422195,59,59,0.384797,4.765655,6.213712,0.01345386,491.8184,1.366162,-0.5706539,0.206824,0.4887917,9.29619,-52.82399,-33.3469,51.93385,-11.04572,67.05882,1.01,1158,25,25,0,27.45098,27.84314,0.8529003,14.80798,0.04,5.513358,1190.648,344.1,18.28815,5.353073,589,70,4169,0.97,1.42984,1.089844,1.4762,-0.00390625,0,0,0,0,0,0,0,0,0,0,0,0,12.76,0,0,0,0,0,0,0,0,0,42,43,0,0,0,0,0,0,0,0,0,0,0,0,0,0,0,0,0,0,0,0,0,0,0,0,0,0,0,0,0,0,0,0,0,0,0,0,0,0,0,0,0,0,0,0,0,0,0,0,0,0,0,0,0,0,0,12.8,0.155158,0,20.73268,0.01129961,0.001321597,44.27397,0.3723507,1,18.80205
23.004,6.213712,1.828816,11.89629,-2.960983,15.64217,-10.36899,59,59,0.384797,4.765655,6.213712,0.01345386,491.8184,1.366162,0.4249365,-0.6717052,0.3735542,8.662829,-54.58871,-31.90047,52.59787,-9.106186,67.05882,1.01,1158,25,25,0,27.45098,27.84314,0.8529003,14.80798,0.04,5.513358,1190.648,344.1,18.28815,5.353073,589,70,4169,0.97,1.42984,1.089844,1.4762,-0.00390625,0,0,0,0,0,0,0,0,0,0,0,0,12.76,0,0,0,0,0,0,0,0,0,42,43,0,0,0,0,0,0,0,0,0,0,0,0,0,0,0,0,0,0,0,0,0,0,0,0,0,0,0,0,0,0,0,0,0,0,0,0,0,0,0,0,0,0,0,0,0,0,0,0,0,0,0,0,0,0,0,12.8,0.155158,0,20.73268,0.01129961,0.001321597,44.27397,0.3723507,1,18.80205
24.005,9.320568,2.141365,11.89995,5.407928,-4.898223,4.517731,59,59,0.6241655,5.4784,9.320568,0.01711102,383.9141,1.599642,-0.6715398,0.3528116,-0.04472951,4.878368,-49.15944,-32.29763,47.13694,-17.5959,57.2549,1,1179.5,25,25,0,22.35294,22.35294,0.7441328,14.93357,0.03,6.455602,823.8644,344,14.27575,5.354105,589,70,4169,0.97,1.885144,1.722656,2.696688,-0.00390625,0,0,0,0,0,0,0,0,0,0,0,0,12.76,0,0,0,0,0,0,0,0,0,42,43,0,0,0,0,0,0,0,0,0,0,0,0,0,0,0,0,0,0,0,0,0,0,0,0,0,0,0,0,0,0,0,0,0,0,0,0,0,0,0,0,0,0,0,0,0,0,0,0,0,0,0,0,0,0,0,12.8,0.2162696,0,27.33459,0.02076922,0.001680847,30.6352,0.4027627,1,18.80205
25.004,9.320568,2.141365,11.89995,-6.600998,-6.17398,12.97836,59,59,0.6241655,5.4784,9.320568,0.01711102,383.9141,1.599642,0.1246198,0.3172199,0.2184466,9.564168,-47.34794,-31.63179,49.44442,-17.01289,57.2549,1,1179.5,25,25,0,22.35294,22.35294,0.7441328,14.93357,0.03,6.455602,823.8644,344,14.27575,5.354105,589,70,4169,0.97,1.885144,1.722656,2.696688,-0.00390625,0,0,0,0,0,0,0,0,0,0,0,0,12.76,0,0,0,0,0,0,0,0,0,42,43,0,0,0,0,0,0,0,0,0,0,0,0,0,0,0,0,0,0,0,0,0,0,0,0,0,0,0,0,0,0,0,0,0,0,0,0,0,0,0,0,0,0,0,0,0,0,0,0,0,0,0,0,0,0,0,12.8,0.2162696,0,27.33459,0.02076922,0.001680847,30.6352,0.4027627,1,18.80205
26.004,9.941939,1.107705,11.90143,-10.34195,-13.08838,20.15588,59,59,0.3826382,3.428313,9.941939,0.01859239,186.1825,0.8274776,0.02617696,0.994065,0.3971165,17.07415,-49.35181,-25.74126,56.12283,-13.45039,9.019608,0.98,975,25,25,0,17.2549,16.86275,0.4426268,12.09752,0.01,3.339413,646.0721,344,6.923151,5.354252,589,70,4169,0.97,3.357928,2.589844,3.531656,-0.00390625,0,0,0,0,0,0,0,0,0,0,0,0,12.76,0,0,0,0,0,0,0,0,0,42,43,0,0,0,0,0,0,0,0,0,0,0,0,0,0,0,0,0,0,0,0,0,0,0,0,0,0,0,0,0,0,0,0,0,0,0,0,0,0,0,0,0,0,0,0,0,0,0,0,0,0,0,0,0,0,0,12.9,0.2316856,0,48.68996,0.02877758,0.001826365,24.02404,0.4378319,1,18.80205
27.004,9.941939,1.107705,11.90143,3.453888,6.735535,22.33276,59,59,0.3826382,3.428313,9.941939,0.01859239,186.1825,0.8274776,0.5689197,-0.5725545,-0.3894993,25.52053,-50.4293,-20.45122,61.67709,-11.05905,9.019608,0.98,975,25,25,0,17.2549,16.86275,0.4426268,12.09752,0.01,3.339413,646.0721,344,6.923151,5.354252,589,70,4169,0.97,3.357928,2.589844,3.531656,-0.00390625,0,0,0,0,0,0,0,0,0,0,0,0,12.76,0,0,0,0,0,0,0,0,0,42,43,0,0,0,0,0,0,0,0,0,0,0,0,0,0,0,0,0,0,0,0,0,0,0,0,0,0,0,0,0,0,0,0,0,0,0,0,0,0,0,0,0,0,0,0,0,0,0,0,0,0,0,0,0,0,0,12.9,0.2316856,0,48.68996,0.02877758,0.001826365,24.02404,0.4378319,1,18.80205
28.004,8.077826,0.1750295,11.9017,2.887955,7.477783,18.25459,59,59,-0.1210946,0.5998502,9.941939,0.01886747,36.20782,0.1307505,0.6289675,-0.3569885,-0.2098075,22.88564,-49.30133,-15.82051,58.73017,-16.24811,29.41176,0.98,880.5,25,25,0,17.2549,16.86275,0.5370852,10.92499,0.01,0.5276637,518.7643,344,1.34638,5.353884,589,70,4169,0.97,2.4034,2.144531,2.462936,-0.00390625,0,0,0,0,0,0,0,0,0,0,0,0,12.76,0,0,0,0,0,0,0,0,0,42,43,0,0,0,0,0,0,0,0,0,0,0,0,0,0,0,0,0,0,0,0,0,0,0,0,0,0,0,0,0,0,0,0,0,0,0,0,0,0,0,0,0,0,0,0,0,0,0,0,0,0,0,0,0,0,0,12.9,0.1920507,0,34.8493,0.03637003,0.001853386,19.29013,0.4666175,1,18.80205
29.004,7.456454,0.6120694,11.9025,-0.3631287,18.23964,11.98232,59,59,-0.2778235,2.043117,9.941939,0.01966447,137.1684,0.457228,-0.2829395,-0.250204,0.4556759,20.17949,-50.97161,9.072449,12.30568,-10.0099,32.54902,0.98,904,25,25,0,15.29412,14.90196,0.6377853,11.21658,0.01,1.845214,466.1751,343.9,5.100574,5.353867,589,70,4169,0.97,2.346792,2.109375,2.521984,-0.00390625,0,0,0,0,0,0,0,0,0,0,0,0,12.76,0,0,0,0,0,0,0,0,0,42,43,0,0,0,0,0,0,0,0,0,0,0,0,0,0,0,0,0,0,0,0,0,0,0,0,0,0,0,0,0,0,0,0,0,0,0,0,0,0,0,0,0,0,0,0,0,0,0,0,0,0,0,0,0,0,0,12.8,0.1761209,0,34.02848,0.04218257,0.001931676,17.33461,0.496769,1,18.80205
30.004,7.456454,0.6120694,11.9025,4.407974,7.18161,6.587906,59,59,-0.2778235,2.043117,9.941939,0.01966447,137.1684,0.457228,0.136247,-0.1447652,0.0107847,18.72864,-51.59793,14.89773,8.13014,-8.001572,32.54902,0.98,904,25,25,0,15.29412,14.90196,0.6377853,11.21658,0.01,1.845214,466.1751,343.8,5.100574,5.353867,589,70,4169,0.97,2.346792,2.109375,2.521984,-0.00390625,0,0,0,0,0,0,0,0,0,0,0,0,12.76,0,0,0,0,0,0,0,0,0,42,43,0,0,0,0,0,0,0,0,0,0,0,0,0,0,0,0,0,0,0,0,0,0,0,0,0,0,0,0,0,0,0,0,0,0,0,0,0,0,0,0,0,0,0,0,0,0,0,0,0,0,0,0,0,0,0,12.8,0.1761209,0,34.02848,0.04218257,0.001931676,17.33461,0.496769,1,18.80205
31.004,7.456454,0.6716408,11.90342,1.33606,4.029922,-13.15938,59,59,-0.07964896,2.244452,9.941939,0.02058338,150.5187,0.501729,-0.6710028,0.3287655,0.2501874,11.24268,-46.86125,16.98054,-0.302593,-15.07312,32.54902,0.98,903,25,25,0,14.90196,14.90196,0.6159634,11.20417,0.01,2.024804,426.5666,343.7,5.597002,5.353887,589,70,4169,0.97,2.286768,2.066406,2.545408,-0.00390625,0,0,0,0,0,0,0,0,0,0,0,0,12.76,0,0,0,0,0,0,0,0,0,42,43,0,0,0,0,0,0,0,0,0,0,0,0,0,0,0,0,0,0,0,0,0,0,0,0,0,0,0,0,0,0,0,0,0,0,0,0,0,0,0,0,0,0,0,0,0,0,0,0,0,0,0,0,0,0,0,12.8,0.1761209,0,33.15813,0.0482536,0.002021943,15.86178,0.5268304,1,18.80205
32.005,7.456454,0.6716408,11.90342,-5.14119,-7.127914,-2.64415,59,59,-0.07964896,2.244452,9.941939,0.02058338,150.5187,0.501729,-0.381181,0.2782064,-0.9380178,4.509809,-43.66139,15.40955,-4.807378,-16.339,32.54902,0.98,903,25,25,0,14.90196,14.90196,0.6159634,11.20417,0.01,2.024804,426.5666,343.7,5.597002,5.353887,589,70,4169,0.97,2.286768,2.066406,2.545408,-0.00390625,0,0,0,0,0,0,0,0,0,0,0,0,12.76,0,0,0,0,0,0,0,0,0,42,43,0,0,0,0,0,0,0,0,0,0,0,0,0,0,0,0,0,0,0,0,0,0,0,0,0,0,0,0,0,0,0,0,0,0,0,0,0,0,0,0,0,0,0,0,0,0,0,0,0,0,0,0,0,0,0,12.8,0.1761209,0,33.15813,0.0482536,0.002021943,15.86178,0.5268304,1,18.80205
33.005,6.835083,0.8307386,11.90452,0.9089966,3.347595,-0.4036255,59,59,-0.07810987,2.108354,9.941939,0.02168167,203.0983,0.6205782,-0.6690963,0.1194377,-0.2180803,2.397377,-44.05479,12.99612,-5.78426,-15.19011,54.5098,1,1189,24,24,0,31.37255,34.11765,0.7627162,15.05385,0.03,2.504439,403.8551,343.7,7.552164,5.354029,589,70,4169,0.97,1.277584,0.8007813,1.335656,-0.00390625,0,0,0,0,0,0,0,0,0,0,0,0,12.76,0,0,0,0,0,0,0,0,0,42,43,0,0,0,0,0,0,0,0,0,0,0,0,0,0,0,0,0,0,0,0,0,0,0,0,0,0,0,0,0,0,0,0,0,0,0,0,0,0,0,0,0,0,0,0,0,0,0,0,0,0,0,0,0,0,0,12.8,0.160499,0,18.52497,0.05368675,0.00212983,15.01726,0.56162,1,18.80205
34.005,6.835083,0.8307386,11.90452,23.3808,9.765976,-1.096817,59,59,-0.07810987,2.108354,9.941939,0.02168167,203.0983,0.6205782,-0.09627156,-0.5145002,0.6007773,2.927172,-45.02467,13.47365,-2.287884,-14.66907,54.5098,1,1189,24,24,0,31.37255,34.11765,0.7627162,15.05385,0.03,2.504439,403.8551,343.6,7.552164,5.354029,589,70,4169,0.97,1.277584,0.8007813,1.335656,-0.00390625,0,0,0,0,0,0,0,0,0,0,0,0,12.76,0,0,0,0,0,0,0,0,0,42,43,0,0,0,0,0,0,0,0,0,0,0,0,0,0,0,0,0,0,0,0,0,0,0,0,0,0,0,0,0,0,0,0,0,0,0,0,0,0,0,0,0,0,0,0,0,0,0,0,0,0,0,0,0,0,0,12.8,0.160499,0,18.52497,0.05368675,0.00212983,15.01726,0.56162,1,18.80205
35.006,9.320568,2.121955,11.90784,-1.279068,0.2575836,-3.45787,59,59,0.1864051,5.403547,9.941939,0.02500791,380.4343,1.585143,-0.2468091,0.171791,0.006255727,3.156014,-41.90019,13.64173,-4.076221,-17.96292,74.5098,1.08,1185,24,24,0,27.84314,26.27451,0.8805316,16.25799,0.11,6.397088,400.5245,343.6,14.14636,5.354958,589,70,4169,0.97,1.66652,1.480469,1.855376,-0.00390625,0,0,0,0,0,0,0,0,0,0,0,0,12.76,0,0,0,0,0,0,0,0,0,42,43,0,0,0,0,0,0,0,0,0,0,0,0,0,0,0,0,0,0,0,0,0,0,0,0,0,0,0,0,0,0,0,0,0,0,0,0,0,0,0,0,0,0,0,0,0,0,0,0,0,0,0,0,0,0,0,12.8,0.1979541,0,24.16454,0.06243792,0.002456573,14.89341,0.5906867,1,18.80205
36.005,9.320568,2.121955,11.90784,-0.6448669,0.2958984,2.194794,59,59,0.1864051,5.403547,9.941939,0.02500791,380.4343,1.585143,0.3261025,-0.198619,0.2888744,5.229563,-44.47284,13.25989,-0.8682479,-16.93546,74.5098,1.08,1185,24,24,0,27.84314,26.27451,0.8805316,16.25799,0.11,6.397088,400.5245,343.7,14.14636,5.354958,589,70,4169,0.97,1.66652,1.480469,1.855376,-0.00390625,0,0,0,0,0,0,0,0,0,0,0,0,12.76,0,0,0,0,0,0,0,0,0,42,43,0,0,0,0,0,0,0,0,0,0,0,0,0,0,0,0,0,0,0,0,0,0,0,0,0,0,0,0,0,0,0,0,0,0,0,0,0,0,0,0,0,0,0,0,0,0,0,0,0,0,0,0,0,0,0,12.8,0.1979541,0,24.16454,0.06243792,0.002456573,14.89341,0.5906867,1,18.80205
37.005,10.56331,2.00419,11.91044,-32.53651,7.987686,-26.59656,59,59,0.4245867,4.842142,10.56331,0.02760706,317.0477,1.49717,-0.8434829,0.4136372,-0.4815497,-1.456435,-42.89795,17.58195,-2.853703,-18.54836,34.90196,1,1249,24,24,0,14.90196,14.90196,0.6104812,15.86672,0.03,6.042059,390.8546,343.8,11.78935,5.355596,589,70,4169,0.97,2.809416,2.371094,12.0048,-0.00390625,0,0,0,0,0,0,0,0,0,0,0,0,12.76,0,0,0,0,0,0,0,0,0,42,43,0,0,0,0,0,0,0,0,0,0,0,0,0,0,0,0,0,0,0,0,0,0,0,0,0,0,0,0,0,0,0,0,0,0,0,0,0,0,0,0,0,0,0,0,0,0,0,0,0,0,0,0,0,0,0,13.2,0.1672177,0,40.73653,0.07063255,0.002711892,14.53384,0.620735,1,18.80205
38.005,10.56331,2.00419,11.91044,-11.17975,-23.71524,-52.42627,59,59,0.4245867,4.842142,10.56331,0.02760706,317.0477,1.49717,0.3852327,0.4366469,-0.7014246,-5.926115,-43.54612,7.3951,-10.16134,-20.80008,34.90196,1,1249,24,24,0,14.90196,14.90196,0.6104812,15.86672,0.03,6.042059,390.8546,343.9,11.78935,5.355596,589,70,4169,0.97,2.809416,2.371094,12.0048,-0.00390625,0,0,0,0,0,0,0,0,0,0,0,0,12.76,0,0,0,0,0,0,0,0,0,42,43,0,0,0,0,0,0,0,0,0,0,0,0,0,0,0,0,0,0,0,0,0,0,0,0,0,0,0,0,0,0,0,0,0,0,0,0,0,0,0,0,0,0,0,0,0,0,0,0,0,0,0,0,0,0,0,13.2,0.1672177,0,40.73653,0.07063255,0.002711892,14.53384,0.620735,1,18.80205
39.005,9.941939,0.7682059,11.91147,23.79764,10.39835,3.854645,59,59,0.08286808,2.281629,10.56331,0.02863827,129.1196,0.5738651,0.8354001,0.9559059,-0.7397991,-3.433037,-39.06424,7.211433,-5.492749,-31.4368,0,0.97,1016,24,24,0,14.90196,14.90196,0.4739479,12.5196,0,2.315921,364.2244,343.9,4.801284,5.355542,589,70,4169,0.97,4.40176,2.878906,3.671224,-0.00390625,0,0,0,0,0,0,0,0,0,0,0,0,12.76,0,0,0,0,0,0,0,0,0,42,43,0,0,0,0,0,0,0,0,0,0,0,0,0,0,0,0,0,0,0,0,0,0,0,0,0,0,0,0,0,0,0,0,0,0,0,0,0,0,0,0,0,0,0,0,0,0,0,0,0,0,0,0,0,0,0,13.2,0.138539,0,63.82552,0.07862809,0.002813189,13.5436,0.650233,1,18.80205
40.005,9.941939,0.7682059,11.91147,-21.11955,11.57472,-6.690872,59,59,0.08286808,2.281629,10.56331,0.02863827,129.1196,0.5738651,1.885583,-0.1697267,0.292907,-7.374683,-44.7498,-3.989872,-7.374231,-23.88943,0,0.97,1016,24,24,0,14.90196,14.90196,0.4739479,12.5196,0,2.315921,364.2244,343.8,4.801284,5.355542,589,70,4169,0.97,4.40176,2.878906,3.671224,-0.00390625,0,0,0,0,0,0,0,0,0,0,0,0,12.76,0,0,0,0,0,0,0,0,0,42,43,0,0,0,0,0,0,0,0,0,0,0,0,0,0,0,0,0,0,0,0,0,0,0,0,0,0,0,0,0,0,0,0,0,0,0,0,0,0,0,0,0,0,0,0,0,0,0,0,0,0,0,0,0,0,0,13.2,0.138539,0,63.82552,0.07862809,0.002813189,13.5436,0.650233,1,18.80205
41.005,9.941939,0.7682059,11.91147,-0.5248871,-14.34996,-13.05138,59,59,0.08286808,2.281629,10.56331,0.02863827,129.1196,0.5738651,0.533781,0.6387879,0.1660625,1.041388,-42.27526,-12.12598,-9.368769,-18.47139,0,0.97,1016,24,24,0,14.90196,14.90196,0.4739479,12.5196,0,2.315921,364.2244,344.1,4.801284,5.355542,589,70,4169,0.97,4.40176,2.878906,3.671224,-0.00390625,0,0,0,0,0,0,0,0,0,0,0,0,12.76,0,0,0,0,0,0,0,0,0,42,43,0,0,0,0,0,0,0,0,0,0,0,0,0,0,0,0,0,0,0,0,0,0,0,0,0,0,0,0,0,0,0,0,0,0,0,0,0,0,0,0,0,0,0,0,0,0,0,0,0,0,0,0,0,0,0,13.2,0.138539,0,63.82552,0.07862809,0.002813189,13.5436,0.650233,1,18.80205
42.005,8.077826,0,11.91147,-12.81024,-21.86012,1.084839,59,58,-0.3129787,0,10.56331,0.02863827,0,0,0.7393175,-1.093184,-0.1503889,7.276102,-45.13134,-18.02177,-4.42348,-12.63788,27.84314,0.98,839,24,24,0,17.2549,26.66667,0.5012861,10.44511,0.01,0,336.8823,344,0,5.355129,608,70,4170,0.97,1.562576,1.308594,1.519632,-0.00390625,0,0,0,0,0,0,0,0,0,0,0,0,12.76,0,0,0,0,0,0,0,0,0,43,44,0,0,0,0,0,0,0,0,0,0,0,0,0,0,0,0,0,0,0,0,0,0,0,0,0,0,0,0,0,0,0,0,0,0,0,0,0,0,0,0,0,0,0,0,0,0,0,0,0,0,0,0,0,0,0,12.8,0.02766258,0,22.65735,0.08500972,0.002813189,12.52689,0.7028545,1,18.80205
43.005,8.699197,0.8548771,11.91349,-14.42705,-45.89695,18.98276,59,58,-0.1917014,2.632319,10.56331,0.0306559,164.214,0.6386101,0.8830269,0.5761713,0.4963579,5.436021,-44.54143,-20.79418,-10.96428,-10.13983,20.78431,1.01,980,24,24,0,14.90196,14.90196,0.984212,12.57397,0.04,2.577209,315.1801,344,6.10626,5.355242,608,70,4170,0.97,2.643984,2.292969,3.077816,-0.00390625,0,0,0,0,0,0,0,0,0,0,0,0,12.76,0,0,0,0,0,0,0,0,0,43,44,0,0,0,0,0,0,0,0,0,0,0,0,0,0,0,0,0,0,0,0,0,0,0,0,0,0,0,0,0,0,0,0,0,0,0,0,0,0,0,0,0,0,0,0,0,0,0,0,0,0,0,0,0,0,0,12.8,-0.02463433,0,38.33777,0.09726472,0.003011385,11.7199,0.7319738,1,18.80205
44.005,8.699197,0.8548771,11.91349,21.64636,-11.06612,-25.57495,59,58,-0.1917014,2.632319,10.56331,0.0306559,164.214,0.6386101,0.915473,-0.8200014,0.1649478,4.466394,-42.56013,-22.46458,-16.35267,-5.92601,20.78431,1.01,980,24,24,0,14.90196,14.90196,0.984212,12.57397,0.04,2.577209,315.1801,343.9,6.10626,5.355242,608,70,4170,0.97,2.643984,2.292969,3.077816,-0.00390625,0,0,0,0,0,0,0,0,0,0,0,0,12.76,0,0,0,0,0,0,0,0,0,43,44,0,0,0,0,0,0,0,0,0,0,0,0,0,0,0,0,0,0,0,0,0,0,0,0,0,0,0,0,0,0,0,0,0,0,0,0,0,0,0,0,0,0,0,0,0,0,0,0,0,0,0,0,0,0,0,12.8,-0.02463433,0,38.33777,0.09726472,0.003011385,11.7199,0.7319738,1,18.80205
45.005,8.699197,0.8565414,11.9146,33.4111,-10.52043,-20.43542,59,58,0.04407371,2.21577,10.56331,0.03176645,164.5337,0.6398534,1.032264,-0.437171,0.9326606,6.157456,-41.79021,-24.40726,-19.39079,1.016769,60.39216,1.03,1166.5,24,24,0,36.86274,36.47059,1.130972,15.26324,0.06,2.582227,305.2979,343.9,6.118148,5.355302,608,70,4170,0.97,1.444968,1.109375,1.213168,-0.00390625,0,0,0,0,0,0,0,0,0,0,0,0,12.76,0,0,0,0,0,0,0,0,0,43,44,0,0,0,0,0,0,0,0,0,0,0,0,0,0,0,0,0,0,0,0,0,0,0,0,0,0,0,0,0,0,0,0,0,0,0,0,0,0,0,0,0,0,0,0,0,0,0,0,0,0,0,0,0,0,0,12.8,-0.04005032,0,20.95204,0.1040507,0.003120477,11.35243,0.7617651,1,18.80205
46.006,8.699197,0.8565414,11.9146,27.08093,3.247787,-13.57271,59,58,0.04407371,2.21577,10.56331,0.03176645,164.5337,0.6398534,-1.486468,0.4906867,0.7026867,4.398506,-42.8127,-20.28255,-21.46727,-2.254044,60.39216,1.03,1166.5,24,24,0,36.86274,36.47059,1.130972,15.26324,0.06,2.582227,305.2979,343.8,6.118148,5.355302,608,70,4170,0.97,1.444968,1.109375,1.213168,-0.00390625,0,0,0,0,0,0,0,0,0,0,0,0,12.76,0,0,0,0,0,0,0,0,0,43,44,0,0,0,0,0,0,0,0,0,0,0,0,0,0,0,0,0,0,0,0,0,0,0,0,0,0,0,0,0,0,0,0,0,0,0,0,0,0,0,0,0,0,0,0,0,0,0,0,0,0,0,0,0,0,0,12.8,-0.04005032,0,20.95204,0.1040507,0.003120477,11.35243,0.7617651,1,18.80205
47.005,12.42742,3.328441,11.91906,-11.70201,12.29976,3.64917,59,58,0.4633416,6.879375,12.42742,0.03622886,447.554,2.486411,-1.111642,-0.004629917,-1.040572,5.75738,-41.22209,-17.53323,-22.68589,-3.544434,84.31373,1.19,1460,24,24,0,39.60784,40,1.270693,22.07113,0.22,10.0343,317.6786,343.8,16.64219,5.356661,608,70,4170,0.97,1.385432,1.019531,1.364448,-0.00390625,0,0,0,0,0,0,0,0,0,0,0,0,12.76,0,0,0,0,0,0,0,0,0,43,44,0,0,0,0,0,0,0,0,0,0,0,0,0,0,0,0,0,0,0,0,0,0,0,0,0,0,0,0,0,0,0,0,0,0,0,0,0,0,0,0,0,0,0,0,0,0,0,0,0,0,0,0,0,0,0,12.8,0.09225289,0,20.08876,0.1140425,0.003558827,11.8128,0.7908554,1,18.80205
48.005,12.42742,3.328441,11.91906,0.8979797,4.828674,9.092987,59,58,0.4633416,6.879375,12.42742,0.03622886,447.554,2.486411,-0.3834811,-0.5150428,0.1667698,3.50614,-40.74173,-17.36091,-22.15529,-5.204926,84.31373,1.19,1460,24,24,0,39.60784,40,1.270693,22.07113,0.22,10.0343,317.6786,343.8,16.64219,5.356661,608,70,4170,0.97,1.385432,1.019531,1.364448,-0.00390625,0,0,0,0,0,0,0,0,0,0,0,0,12.76,0,0,0,0,0,0,0,0,0,43,44,0,0,0,0,0,0,0,0,0,0,0,0,0,0,0,0,0,0,0,0,0,0,0,0,0,0,0,0,0,0,0,0,0,0,0,0,0,0,0,0,0,0,0,0,0,0,0,0,0,0,0,0,0,0,0,12.8,0.09225289,0,20.08876,0.1140425,0.003558827,11.8128,0.7908554,1,18.80205
49.005,16.15565,5.510576,11.92626,-9.110703,-10.04613,-0.1756744,59,58,0.9435735,9.05209,16.15565,0.04341984,569.9783,4.116509,0.1656402,-0.2848905,0.428314,1.727955,-42.73251,-18.34773,-20.44603,-5.165085,65.4902,1.23,1837,32,24,0,25.4902,22.35294,1.203957,28.70378,0.26,16.61281,343.0364,343.7,21.19451,5.359081,608,70,4170,0.97,2.647888,2.296875,5.457792,-0.00390625,0,0,0,0,0,0,0,0,0,0,0,0,12.76,0,0,0,0,0,0,0,0,0,43,44,0,0,0,0,0,0,0,0,0,0,0,0,0,0,0,0,0,0,0,0,0,0,0,0,0,0,0,0,0,0,0,0,0,0,0,0,0,0,0,0,0,0,0,0,0,0,0,0,0,0,0,0,0,0,0,12.8,0.2042291,0,38.39437,0.126575,0.00426521,12.75573,0.8259006,1,18.80205
50.005,16.15565,5.510576,11.92626,10.25006,24.59703,-18.83138,59,58,0.9435735,9.05209,16.15565,0.04341984,569.9783,4.116509,-0.3692187,1.149309,1.017538,5.597515,-41.19476,-19.53085,-23.63092,5.603699,65.4902,1.23,1837,32,24,0,25.4902,22.35294,1.203957,28.70378,0.26,16.61281,343.0364,343.7,21.19451,5.359081,608,70,4170,0.97,2.647888,2.296875,5.457792,-0.00390625,0,0,0,0,0,0,0,0,0,0,0,0,12.76,0,0,0,0,0,0,0,0,0,43,44,0,0,0,0,0,0,0,0,0,0,0,0,0,0,0,0,0,0,0,0,0,0,0,0,0,0,0,0,0,0,0,0,0,0,0,0,0,0,0,0,0,0,0,0,0,0,0,0,0,0,0,0,0,0,0,12.8,0.2042291,0,38.39437,0.126575,0.00426521,12.75573,0.8259006,1,18.80205
51.005,16.77702,1.554559,11.92872,9.767685,12.41698,-4.976639,59,58,0.5453368,4.534586,16.77702,0.04588458,154.8382,1.161286,0.7560298,-1.165761,-0.06627873,13.49087,-40.85611,-16.86442,-18.32107,8.962433,0,1,1034.5,32,24,0,14.90196,14.90196,0.3568819,12.79728,0.03,4.686549,321.828,343.7,5.757621,5.359152,608,70,4170,0.97,7.56644,3.3125,6.436232,-0.00390625,0,0,0,0,0,0,0,0,0,0,0,0,12.76,0,0,0,0,0,0,0,0,0,43,44,0,0,0,0,0,0,0,0,0,0,0,0,0,0,0,0,0,0,0,0,0,0,0,0,0,0,0,0,0,0,0,0,0,0,0,0,0,0,0,0,0,0,0,0,0,0,0,0,0,0,0,0,0,0,0,12.8,0.21725,0,109.7134,0.1425749,0.004507326,11.9671,0.8553127,1,18.80205
52.005,16.77702,1.554559,11.92872,-5.304062,-5.808472,-0.8659668,59,58,0.5453368,4.534586,16.77702,0.04588458,154.8382,1.161286,-0.6652002,0.1665332,-0.6333901,10.43171,-37.10033,-16.75176,-22.27401,4.530151,0,1,1034.5,32,24,0,14.90196,14.90196,0.3568819,12.79728,0.03,4.686549,321.828,343.8,5.757621,5.359152,608,70,4170,0.97,7.56644,3.3125,6.436232,-0.00390625,0,0,0,0,0,0,0,0,0,0,0,0,12.76,0,0,0,0,0,0,0,0,0,43,44,0,0,0,0,0,0,0,0,0,0,0,0,0,0,0,0,0,0,0,0,0,0,0,0,0,0,0,0,0,0,0,0,0,0,0,0,0,0,0,0,0,0,0,0,0,0,0,0,0,0,0,0,0,0,0,12.8,0.21725,0,109.7134,0.1425749,0.004507326,11.9671,0.8553127,1,18.80205
53.005,14.29154,0,11.92872,-12.48756,4.721161,8.618561,59,58,-0.2545637,0,16.77702,0.04588458,0,0,1.041993,0.6393452,-0.7635856,11.09171,-38.07289,-16.0237,-23.92329,5.699112,32.54902,0.98,865.5,32,24,0,14.90196,14.90196,0.4860407,10.49253,0.01,0,298.5757,343.8,0,5.358433,608,70,4170,0.97,2.468792,2.179688,2.081808,-0.00390625,0,0,0,0,0,0,0,0,0,0,0,0,12.76,0,0,0,0,0,0,0,0,0,43,44,0,0,0,0,0,0,0,0,0,0,0,0,0,0,0,0,0,0,0,0,0,0,0,0,0,0,0,0,0,0,0,0,0,0,0,0,0,0,0,0,0,0,0,0,0,0,0,0,0,0,0,0,0,0,0,13.4,0.1689383,0,35.79749,0.1536782,0.004507326,11.10247,0.8854211,1,18.80205
54.005,5.592341,0.7192748,11.92969,4.102325,3.354767,-1.01506,59,58,-1.399118,2.330092,16.77702,0.0468512,214.925,0.5373126,0.2216279,0.637459,-1.206643,9.859581,-38.08717,-14.64606,-24.5439,4.561493,29.80392,0.99,931.5,32,24,0,14.90196,14.90196,0.7051681,11.40789,0.02,2.168408,296.1863,343.8,7.991937,5.358576,608,70,4170,0.97,1.992016,1.878906,2.199416,-0.00390625,0,0,0,0,0,0,0,0,0,0,0,0,12.76,0,0,0,0,0,0,0,0,0,43,44,0,0,0,0,0,0,0,0,0,0,0,0,0,0,0,0,0,0,0,0,0,0,0,0,0,0,0,0,0,0,0,0,0,0,0,0,0,0,0,0,0,0,0,0,0,0,0,0,0,0,0,0,0,0,0,13.4,-0.09985452,0,28.88423,0.1581815,0.004602279,11.01362,0.9145366,1,18.80205
55.005,5.592341,0.7192748,11.92969,-4.431839,9.02095,-27.60995,59,58,-1.399118,2.330092,16.77702,0.0468512,214.925,0.5373126,0.64191,0.7507383,-0.120366,16.10457,-39.07506,-19.53889,-11.32522,2.763138,29.80392,0.99,931.5,32,24,0,14.90196,14.90196,0.7051681,11.40789,0.02,2.168408,296.1863,343.8,7.991937,5.358576,608,70,4170,0.97,1.992016,1.878906,2.199416,-0.00390625,0,0,0,0,0,0,0,0,0,0,0,0,12.76,0,0,0,0,0,0,0,0,0,43,44,0,0,0,0,0,0,0,0,0,0,0,0,0,0,0,0,0,0,0,0,0,0,0,0,0,0,0,0,0,0,0,0,0,0,0,0,0,0,0,0,0,0,0,0,0,0,0,0,0,0,0,0,0,0,0,13.4,-0.09985452,0,28.88423,0.1581815,0.004602279,11.01362,0.9145366,1,18.80205
56.005,5.592341,0.7192748,11.92969,35.51483,38.05428,19.88559,59,58,-1.399118,2.330092,16.77702,0.0468512,214.925,0.5373126,-1.47546,-0.714086,2.739477,17.37886,-41.30369,-23.45767,-15.10561,10.13196,29.80392,0.99,931.5,32,24,0,14.90196,14.90196,0.7051681,11.40789,0.02,2.168408,296.1863,343.7,7.991937,5.358576,608,70,4170,0.97,1.992016,1.878906,2.199416,-0.00390625,0,0,0,0,0,0,0,0,0,0,0,0,12.76,0,0,0,0,0,0,0,0,0,43,44,0,0,0,0,0,0,0,0,0,0,0,0,0,0,0,0,0,0,0,0,0,0,0,0,0,0,0,0,0,0,0,0,0,0,0,0,0,0,0,0,0,0,0,0,0,0,0,0,0,0,0,0,0,0,0,13.4,-0.09985452,0,28.88423,0.1581815,0.004602279,11.01362,0.9145366,1,18.80205
57.006,1.864114,1.717628,11.93197,-14.68088,29.15211,33.65747,59,58,-1.549343,3.404339,16.77702,0.0491314,1539.723,1.283102,-0.6883529,-0.5229883,-0.03779982,12.44525,-42.63204,-23.32722,-5.736311,-7.166153,96.86275,1.11,1522.5,29,24,0,41.96078,38.82353,1.708739,20.90583,0.14,5.178157,307.7263,343.7,57.25423,5.359505,608,70,4170,0.97,1.830488,1.683594,1.5006,-0.00390625,0,0,0,0,0,0,0,0,0,0,0,0,12.76,0,0,0,0,0,0,0,0,0,43,44,0,0,0,0,0,0,0,0,0,0,0,0,0,0,0,0,0,0,0,0,0,0,0,0,0,0,0,0,0,0,0,0,0,0,0,0,0,0,0,0,0,0,0,0,0,0,0,0,0,0,0,0,0,0,0,13.4,-0.2258476,0,26.54208,0.1596594,0.004826267,11.44273,0.9503391,1,18.80205
58.005,8.699197,5.242081,11.94032,-2.604874,6.885666,17.54204,59,58,0.2463305,8.450042,16.77702,0.05748186,1006.956,3.915938,-0.301329,-0.4077659,0.001388464,3.823248,-44.31839,-18.33274,-8.612411,-15.6082,67.05882,1.15,1872,29,24,0,36.47059,39.60784,0.9720792,26.89563,0.18,15.80337,342.2461,343.7,37.44341,5.362718,608,70,4170,0.97,1.240496,0.7109375,1.3054,-0.00390625,0,0,0,0,0,0,0,0,0,0,0,0,12.76,0,0,0,0,0,0,0,0,0,43,44,0,0,0,0,0,0,0,0,0,0,0,0,0,0,0,0,0,0,0,0,0,0,0,0,0,0,0,0,0,0,0,0,0,0,0,0,0,0,0,0,0,0,0,0,0,0,0,0,0,0,0,0,0,0,0,13.4,-0.06716204,0,17.98719,0.1679548,0.005646548,12.72634,0.9797248,1,18.80205
59.006,8.699197,5.242081,11.94032,7.154068,14.15152,-6.867569,59,58,0.2463305,8.450042,16.77702,0.05748186,1006.956,3.915938,-0.6851222,-0.01940768,-0.8174029,4.310961,-43.73649,-12.60707,-3.6609,-18.62802,67.05882,1.15,1872,29,24,0,36.47059,39.60784,0.9720792,26.89563,0.18,15.80337,342.2461,343.7,37.44341,5.362718,608,70,4170,0.97,1.240496,0.7109375,1.3054,-0.00390625,0,0,0,0,0,0,0,0,0,0,0,0,12.76,0,0,0,0,0,0,0,0,0,43,44,0,0,0,0,0,0,0,0,0,0,0,0,0,0,0,0,0,0,0,0,0,0,0,0,0,0,0,0,0,0,0,0,0,0,0,0,0,0,0,0,0,0,0,0,0,0,0,0,0,0,0,0,0,0,0,13.4,-0.06716204,0,17.98719,0.1679548,0.005646548,12.72634,0.9797248,1,18.80205
60.006,8.699197,5.242081,11.94032,19.83336,-1.772339,14.03084,59,58,0.2463305,8.450042,16.77702,0.05748186,1006.956,3.915938,1.019461,0.128524,1.296072,11.39966,-43.89287,-11.69339,-2.530027,-9.844025,67.05882,1.15,1872,29,24,0,36.47059,39.60784,0.9720792,26.89563,0.18,15.80337,342.2461,343.6,37.44341,5.362718,608,70,4170,0.97,1.240496,0.7109375,1.3054,-0.00390625,0,0,0,0,0,0,0,0,0,0,0,0,12.76,0,0,0,0,0,0,0,0,0,43,44,0,0,0,0,0,0,0,0,0,0,0,0,0,0,0,0,0,0,0,0,0,0,0,0,0,0,0,0,0,0,0,0,0,0,0,0,0,0,0,0,0,0,0,0,0,0,0,0,0,0,0,0,0,0,0,13.4,-0.06716204,0,17.98719,0.1679548,0.005646548,12.72634,0.9797248,1,18.80205
61.006,12.42742,3.530995,11.94497,-25.32788,-19.23155,12.23184,59,58,1.187758,7.086874,16.77702,0.06213629,474.7902,2.637723,0.9087818,-0.9143097,-1.111827,13.99936,-44.00075,-10.65641,2.939713,-10.31358,86.27451,1.25,1503.5,29,24,0,43.92157,43.92157,0.7692143,23.47964,0.28,10.64494,349.526,343.7,17.65496,5.364172,627,70,4170,0.97,1.458144,1.175781,1.414224,-0.00390625,0,0,0,0,0,0,0,0,0,0,0,0,13.34,0,0,0,0,0,0,0,0,0,50,43,0,0,0,0,0,0,0,0,0,0,0,0,0,0,0,0,0,0,0,0,0,0,0,0,0,0,0,0,0,0,0,0,0,0,0,0,0,0,0,0,0,0,0,0,0,0,0,0,0,0,0,0,0,0,0,13.4,0.07429975,0,21.14309,0.177773,0.006103761,12.99704,1.017227,1,18.80205
62.006,18.01976,9.272465,11.96056,37.42747,-2.07663,-8.345856,59,58,1.027271,18.76629,18.01976,0.07772399,859.868,6.926714,-1.77171,-0.2984758,-0.1720692,2.564992,-42.53944,-18.57936,-9.684042,-16.26987,69.80392,1.47,1491,29,24,0,43.13726,43.92157,1.954885,27.38249,0.5,27.95382,396.7695,343.8,31.97399,5.369998,627,70,4170,0.97,1.25904,0.7539063,1.219512,-0.00390625,0,0,0,0,0,0,0,0,0,0,0,0,13.34,0,0,0,0,0,0,0,0,0,50,43,0,0,0,0,0,0,0,0,0,0,0,0,0,0,0,0,0,0,0,0,0,0,0,0,0,0,0,0,0,0,0,0,0,0,0,0,0,0,0,0,0,0,0,0,0,0,0,0,0,0,0,0,0,0,0,13.4,0.1766325,0,18.25608,0.1958921,0.00763497,14.75378,1.046345,1,18.80205
63.006,18.01976,9.272465,11.96056,4.807724,12.49692,-8.870361,59,58,1.027271,18.76629,18.01976,0.07772399,859.868,6.926714,-0.6748802,0.3376006,-0.1647227,-5.093798,-41.92212,-17.46081,-18.98336,-17.19513,69.80392,1.47,1491,29,24,0,43.13726,43.92157,1.954885,27.38249,0.5,27.95382,396.7695,343.9,31.97399,5.369998,627,70,4170,0.97,1.25904,0.7539063,1.219512,-0.00390625,0,0,0,0,0,0,0,0,0,0,0,0,13.34,0,0,0,0,0,0,0,0,0,50,43,0,0,0,0,0,0,0,0,0,0,0,0,0,0,0,0,0,0,0,0,0,0,0,0,0,0,0,0,0,0,0,0,0,0,0,0,0,0,0,0,0,0,0,0,0,0,0,0,0,0,0,0,0,0,0,13.4,0.1766325,0,18.25608,0.1958921,0.00763497,14.75378,1.046345,1,18.80205
64.006,21.12662,3.818556,11.96552,-15.18452,-19.8165,10.13016,59,58,0.9546692,7.903193,21.12662,0.08268006,302.0333,2.852537,0.4918751,0.05522388,-1.126226,5.38698,-35.71329,-15.42352,-11.36583,-17.87491,76.86275,1.23,1458,30,24,0,36.86274,36.86274,1.003353,22.40478,0.26,11.51185,389.3894,343.9,11.23104,5.371156,627,70,4170,0.97,1.409832,1.058594,1.344928,-0.00390625,0,0,0,0,0,0,0,0,0,0,0,0,13.34,0,0,0,0,0,0,0,0,0,50,43,0,0,0,0,0,0,0,0,0,0,0,0,0,0,0,0,0,0,0,0,0,0,0,0,0,0,0,0,0,0,0,0,0,0,0,0,0,0,0,0,0,0,0,0,0,0,0,0,0,0,0,0,0,0,0,12.9,0.2564189,0,20.44256,0.2123326,0.008121814,14.47935,1.081372,1,18.80205
65.006,21.12662,3.818556,11.96552,10.63495,1.567459,-8.655792,59,58,0.9546692,7.903193,21.12662,0.08268006,302.0333,2.852537,0.1200431,-0.6411541,-0.7000512,8.039319,-38.35647,-17.02023,-7.761725,-15.94025,76.86275,1.23,1458,30,24,0,36.86274,36.86274,1.003353,22.40478,0.26,11.51185,389.3894,343.9,11.23104,5.371156,627,70,4170,0.97,1.409832,1.058594,1.344928,-0.00390625,0,0,0,0,0,0,0,0,0,0,0,0,13.34,0,0,0,0,0,0,0,0,0,50,43,0,0,0,0,0,0,0,0,0,0,0,0,0,0,0,0,0,0,0,0,0,0,0,0,0,0,0,0,0,0,0,0,0,0,0,0,0,0,0,0,0,0,0,0,0,0,0,0,0,0,0,0,0,0,0,12.9,0.2564189,0,20.44256,0.2123326,0.008121814,14.47935,1.081372,1,18.80205
66.006,23.6121,3.878494,11.97161,-14.71071,2.159485,-4.186646,59,58,0.6634749,7.466492,23.6121,0.08877014,274.4822,2.897312,-0.1494609,0.8954803,1.339798,5.609364,-36.44267,-16.41833,-11.8548,-17.72865,72.54902,1.12,1567.5,30,24,0,35.68628,35.29412,0.9495913,21.86093,0.15,11.69255,378.551,344,10.20656,5.372452,627,70,4170,0.97,1.802184,1.5625,1.441552,-0.00390625,0,0,0,0,0,0,0,0,0,0,0,0,13.34,0,0,0,0,0,0,0,0,0,50,43,0,0,0,0,0,0,0,0,0,0,0,0,0,0,0,0,0,0,0,0,0,0,0,0,0,0,0,0,0,0,0,0,0,0,0,0,0,0,0,0,0,0,0,0,0,0,0,0,0,0,0,0,0,0,0,12.9,0.2166592,0,26.13167,0.2344998,0.008720053,14.07633,1.110803,1,18.80205
67.006,23.6121,3.878494,11.97161,6.670181,11.92566,-11.38663,59,58,0.6634749,7.466492,23.6121,0.08877014,274.4822,2.897312,0.263992,2.153196,0.6191126,5.674724,-36.28256,-16.53836,-11.67025,-17.06718,72.54902,1.12,1567.5,30,24,0,35.68628,35.29412,0.9495913,21.86093,0.15,11.69255,378.551,343.9,10.20656,5.372452,627,70,4170,0.97,1.802184,1.5625,1.441552,-0.00390625,0,0,0,0,0,0,0,0,0,0,0,0,13.34,0,0,0,0,0,0,0,0,0,50,43,0,0,0,0,0,0,0,0,0,0,0,0,0,0,0,0,0,0,0,0,0,0,0,0,0,0,0,0,0,0,0,0,0,0,0,0,0,0,0,0,0,0,0,0,0,0,0,0,0,0,0,0,0,0,0,12.9,0.2166592,0,26.13167,0.2344998,0.008720053,14.07633,1.110803,1,18.80205
68.006,24.85485,5.803382,11.9793,12.52249,-12.08617,8.623108,59,58,0.4213397,8.667291,24.85485,0.09646071,390.1718,4.335242,-1.470276,-0.3582419,2.51132,1.679294,-34.0068,-15.08805,-15.31405,-19.70903,99.21568,1.42,2020.5,30,24,0,86.66666,85.4902,1.400197,35.72648,0.45,17.49553,379.4915,344,14.50844,5.374627,627,70,4170,0.97,1.184864,0.6289063,1.10776,-0.00390625,0,0,0,0,0,0,0,0,0,0,0,0,13.34,0,0,0,0,0,0,0,0,0,50,43,0,0,0,0,0,0,0,0,0,0,0,0,0,0,0,0,0,0,0,0,0,0,0,0,0,0,0,0,0,0,0,0,0,0,0,0,0,0,0,0,0,0,0,0,0,0,0,0,0,0,0,0,0,0,0,12.9,0.1519721,0,17.18053,0.2541841,0.009475511,14.1113,1.14062,1,18.80205
69.007,24.85485,5.803382,11.9793,10.65204,11.43985,-8.91153,59,58,0.4213397,8.667291,24.85485,0.09646071,390.1718,4.335242,-0.3744264,-2.277339,-0.7294067,3.829797,-36.79055,-14.8253,-9.200935,-18.54199,99.21568,1.42,2020.5,30,24,0,86.66666,85.4902,1.400197,35.72648,0.45,17.49553,379.4915,344,14.50844,5.374627,627,70,4170,0.97,1.184864,0.6289063,1.10776,-0.00390625,0,0,0,0,0,0,0,0,0,0,0,0,13.34,0,0,0,0,0,0,0,0,0,50,43,0,0,0,0,0,0,0,0,0,0,0,0,0,0,0,0,0,0,0,0,0,0,0,0,0,0,0,0,0,0,0,0,0,0,0,0,0,0,0,0,0,0,0,0,0,0,0,0,0,0,0,0,0,0,0,12.9,0.1519721,0,17.18053,0.2541841,0.009475511,14.1113,1.14062,1,18.80205
70.007,32.3113,34.74876,12.02602,-0.3194733,-12.3027,-6.505508,59,58,1.083642,28.05557,32.3113,0.1431865,1797.093,25.95801,-0.0843925,-1.121851,0.8733767,3.504967,-38.91882,-18.54889,-10.09658,-15.46538,76.07843,1.95,3737.5,30,24,0,14.90196,14.90196,4.756058,90.75255,0.98,104.7576,511.0913,344.1,66.82449,5.3939,627,70,4170,0.97,15.9903,3.917969,15.9903,-0.00390625,0,0,0,0,0,0,0,0,0,0,0,0,13.34,0,0,0,0,0,0,0,0,0,50,43,0,0,0,0,0,0,0,0,0,0,0,0,0,0,0,0,0,0,0,0,0,0,0,0,0,0,0,0,0,0,0,0,0,0,0,0,0,0,0,0,0,0,0,0,0,0,0,0,0,0,0,0,0,0,0,12.9,0.3243203,0,231.8593,0.2801583,0.01406547,19.00481,1.169874,1,18.80205
71.007,32.3113,34.74876,12.02602,18.3833,7.620193,-5.554977,59,58,1.083642,28.05557,32.3113,0.1431865,1797.093,25.95801,0.4624014,0.09741986,-0.1220804,0.2936282,-38.48629,-22.45768,-15.40972,-13.98981,76.07843,1.95,3737.5,30,24,0,14.90196,14.90196,4.756058,90.75255,0.98,104.7576,511.0913,344.2,66.82449,5.3939,627,70,4170,0.97,15.9903,3.917969,15.9903,-0.00390625,0,0,0,0,0,0,0,0,0,0,0,0,13.34,0,0,0,0,0,0,0,0,0,50,43,0,0,0,0,0,0,0,0,0,0,0,0,0,0,0,0,0,0,0,0,0,0,0,0,0,0,0,0,0,0,0,0,0,0,0,0,0,0,0,0,0,0,0,0,0,0,0,0,0,0,0,0,0,0,0,12.9,0.3243203,0,231.8593,0.2801583,0.01406547,19.00481,1.169874,1,18.80205
72.007,32.93267,2.355902,12.02907,19.28932,10.54819,10.05167,59,58,1.006635,3.600486,32.93267,0.1462366,119.5407,1.759905,0.1239971,-0.2111017,0.8470637,1.02983,-40.85566,-21.62455,-13.75271,-12.91031,0,1.11,1974.5,25,24,0,14.90196,14.90196,0.2273325,27.29123,0.14,7.10237,478.233,344.3,4.445095,5.393601,627,70,4170,0.97,15.9903,3.792969,15.9903,-0.00390625,0,0,0,0,0,0,0,0,0,0,0,0,13.34,0,0,0,0,0,0,0,0,0,50,43,0,0,0,0,0,0,0,0,0,0,0,0,0,0,0,0,0,0,0,0,0,0,0,0,0,0,0,0,0,0,0,0,0,0,0,0,0,0,0,0,0,0,0,0,0,0,0,0,0,0,0,0,0,0,0,15,0.4042118,0,231.8593,0.3057852,0.01436509,17.78298,1.206365,1,18.80205
73.007,32.93267,2.355902,12.02907,-0.4138794,3.291779,-2.682648,59,58,1.006635,3.600486,32.93267,0.1462366,119.5407,1.759905,0.853046,-0.1302403,-0.2753298,3.508534,-43.31453,-20.09383,-8.621717,-11.2578,0,1.11,1974.5,25,24,0,14.90196,14.90196,0.2273325,27.29123,0.14,7.10237,478.233,344.3,4.445095,5.393601,627,70,4170,0.97,15.9903,3.792969,15.9903,-0.00390625,0,0,0,0,0,0,0,0,0,0,0,0,13.34,0,0,0,0,0,0,0,0,0,50,43,0,0,0,0,0,0,0,0,0,0,0,0,0,0,0,0,0,0,0,0,0,0,0,0,0,0,0,0,0,0,0,0,0,0,0,0,0,0,0,0,0,0,0,0,0,0,0,0,0,0,0,0,0,0,0,15,0.4042118,0,231.8593,0.3057852,0.01436509,17.78298,1.206365,1,18.80205
74.007,24.85485,0,12.02907,1.740967,-9.697144,1.042709,59,58,-0.7469832,0,32.93267,0.1462366,0,0,0.8921635,-0.3084377,-0.7674552,6.913935,-45.95753,-20.9302,-6.283206,-7.295105,0,1,1577,25,24,0,23.92157,23.92157,0.4052159,19.96629,0.03,0,443.0736,344.2,0,5.392024,627,70,4170,0.97,2.519056,2.222656,1.720688,-0.00390625,0,0,0,0,0,0,0,0,0,0,0,0,13.34,0,0,0,0,0,0,0,0,0,50,43,0,0,0,0,0,0,0,0,0,0,0,0,0,0,0,0,0,0,0,0,0,0,0,0,0,0,0,0,0,0,0,0,0,0,0,0,0,0,0,0,0,0,0,0,0,0,0,0,0,0,0,0,0,0,0,15,0.4547472,0,36.52631,0.3300503,0.01436509,16.47559,1.23703,1,18.80205
75.007,24.85485,0,12.02907,13.34067,7.256637,-2.974945,59,58,-0.7469832,0,32.93267,0.1462366,0,0,0.1260458,-0.1040197,0.4238616,6.04526,-45.74031,-19.32913,-6.759226,-8.60762,0,1,1577,25,24,0,23.92157,23.92157,0.4052159,19.96629,0.03,0,443.0736,344.2,0,5.392024,627,70,4170,0.97,2.519056,2.222656,1.720688,-0.00390625,0,0,0,0,0,0,0,0,0,0,0,0,13.34,0,0,0,0,0,0,0,0,0,50,43,0,0,0,0,0,0,0,0,0,0,0,0,0,0,0,0,0,0,0,0,0,0,0,0,0,0,0,0,0,0,0,0,0,0,0,0,0,0,0,0,0,0,0,0,0,0,0,0,0,0,0,0,0,0,0,15,0.4547472,0,36.52631,0.3300503,0.01436509,16.47559,1.23703,1,18.80205
76.007,24.23348,0,12.02907,33.71703,34.35242,4.321579,59,58,-0.9023532,0,32.93267,0.1462366,0,0,-0.1388694,-0.03364764,1.320025,0.9435924,-46.18434,-16.12646,-10.24464,-12.81717,57.64706,1.05,1602.5,25,24,0,34.5098,34.5098,0.674637,21.30361,0.08,0,417.8691,344.2,0,5.39073,627,70,4170,0.97,1.885144,1.664063,1.60308,-0.00390625,0,0,0,0,0,0,0,0,0,0,0,0,13.34,0,0,0,0,0,0,0,0,0,50,43,0,0,0,0,0,0,0,0,0,0,0,0,0,0,0,0,0,0,0,0,0,0,0,0,0,0,0,0,0,0,0,0,0,0,0,0,0,0,0,0,0,0,0,0,0,0,0,0,0,0,0,0,0,0,0,13,0.5336097,0,27.33459,0.3499579,0.01436509,15.53836,1.267856,1,18.80205
77.007,25.47622,2.149595,12.03207,5.042511,4.510315,-3.310608,59,58,0.07380104,5.720112,32.93267,0.1492333,140.9962,1.60579,-0.8371044,-0.1844455,-0.2924773,-4.50014,-37.18481,-13.67976,-16.19048,-19.4821,57.64706,1.08,1134,25,24,0,27.84314,27.45098,0.6279219,15.5061,0.11,6.480412,402.0989,344.2,5.24291,5.390697,627,70,4170,0.97,1.547448,1.285156,1.49328,-0.00390625,0,0,0,0,0,0,0,0,0,0,0,0,13.34,0,0,0,0,0,0,0,0,0,50,43,0,0,0,0,0,0,0,0,0,0,0,0,0,0,0,0,0,0,0,0,0,0,0,0,0,0,0,0,0,0,0,0,0,0,0,0,0,0,0,0,0,0,0,0,0,0,0,0,0,0,0,0,0,0,0,13,0.4202413,0,22.438,0.3711357,0.01465946,14.95195,1.297343,1,18.80205
78.007,25.47622,2.149595,12.03207,-4.403152,-7.282028,1.31781,59,58,0.07380104,5.720112,32.93267,0.1492333,140.9962,1.60579,-0.6119599,0.04876797,-0.1153516,-1.04565,-39.99712,-13.7067,-10.94483,-17.93205,57.64706,1.08,1134,25,24,0,27.84314,27.45098,0.6279219,15.5061,0.11,6.480412,402.0989,344.2,5.24291,5.390697,627,70,4170,0.97,1.547448,1.285156,1.49328,-0.00390625,0,0,0,0,0,0,0,0,0,0,0,0,13.34,0,0,0,0,0,0,0,0,0,50,43,0,0,0,0,0,0,0,0,0,0,0,0,0,0,0,0,0,0,0,0,0,0,0,0,0,0,0,0,0,0,0,0,0,0,0,0,0,0,0,0,0,0,0,0,0,0,0,0,0,0,0,0,0,0,0,13,0.4202413,0,22.438,0.3711357,0.01465946,14.95195,1.297343,1,18.80205
79.007,25.47622,2.149595,12.03207,-8.209686,-15.85509,5.082733,59,58,0.07380104,5.720112,32.93267,0.1492333,140.9962,1.60579,0.2079097,0.5934268,-0.3283647,0.1350755,-41.22248,-11.92555,-12.59986,-16.66472,57.64706,1.08,1134,25,24,0,27.84314,27.45098,0.6279219,15.5061,0.11,6.480412,402.0989,344.1,5.24291,5.390697,627,70,4170,0.97,1.547448,1.285156,1.49328,-0.00390625,0,0,0,0,0,0,0,0,0,0,0,0,13.34,0,0,0,0,0,0,0,0,0,50,43,0,0,0,0,0,0,0,0,0,0,0,0,0,0,0,0,0,0,0,0,0,0,0,0,0,0,0,0,0,0,0,0,0,0,0,0,0,0,0,0,0,0,0,0,0,0,0,0,0,0,0,0,0,0,0,13,0.4202413,0,22.438,0.3711357,0.01465946,14.95195,1.297343,1,18.80205
80.007,25.47622,2.149595,12.03207,20.70074,5.145554,-3.893128,59,58,0.07380104,5.720112,32.93267,0.1492333,140.9962,1.60579,0.7810425,0.05678094,2.920308,0.1959777,-41.56655,-14.214,-9.471413,-15.83765,57.64706,1.08,1134,25,24,0,27.84314,27.45098,0.6279219,15.5061,0.11,6.480412,402.0989,344.1,5.24291,5.390697,627,70,4170,0.97,1.547448,1.285156,1.49328,-0.00390625,0,0,0,0,0,0,0,0,0,0,0,0,13.34,0,0,0,0,0,0,0,0,0,50,43,0,0,0,0,0,0,0,0,0,0,0,0,0,0,0,0,0,0,0,0,0,0,0,0,0,0,0,0,0,0,0,0,0,0,0,0,0,0,0,0,0,0,0,0,0,0,0,0,0,0,0,0,0,0,0,13,0.4202413,0,22.438,0.3711357,0.01465946,14.95195,1.297343,1,18.80205
81.007,26.09759,2.323385,12.03513,11.46439,-0.08482361,-3.913406,58,59,0.2279329,5.97956,32.93267,0.152294,148.7669,1.735614,-0.07215647,0.3476175,-0.9651234,-1.709859,-41.56929,-15.96841,-12.46311,-15.81502,91.37255,1.09,1172.5,27,24,0,32.94118,32.94118,0.9590806,16.18099,0.12,7.004339,388.7393,344.1,5.531864,5.390728,647,70,4170,0.97,1.438136,1.109375,1.577704,-0.00390625,0,0,0,0,0,0,0,0,0,0,0,0,12.98,0,0,0,0,0,0,0,0,0,56,44,0,0,0,0,0,0,0,0,0,0,0,0,0,0,0,0,0,0,0,0,0,0,0,0,0,0,0,0,0,0,0,0,0,0,0,0,0,0,0,0,0,0,0,0,0,0,0,0,0,0,0,0,0,0,0,13,0.3416448,0,20.85297,0.3917639,0.01496012,14.45518,1.351285,1,18.80205
82.007,27.9617,3.506133,12.04364,7.336899,-3.498718,-2.889832,58,59,0.2069739,8.601701,32.93267,0.1608065,209.5321,2.619151,-0.1646398,0.1003933,-0.0001681005,0.6604165,-41.60948,-16.65083,-10.01376,-15.2149,64.70588,1.07,1230,27,24,0,31.76471,32.15686,0.8890529,16.55202,0.1,10.56999,371.9617,344,7.791402,5.391907,647,70,4170,0.97,1.463512,1.152344,1.56648,-0.00390625,0,0,0,0,0,0,0,0,0,0,0,0,12.98,0,0,0,0,0,0,0,0,0,56,44,0,0,0,0,0,0,0,0,0,0,0,0,0,0,0,0,0,0,0,0,0,0,0,0,0,0,0,0,0,0,0,0,0,0,0,0,0,0,0,0,0,0,0,0,0,0,0,0,0,0,0,0,0,0,0,13,0.2561818,0,21.22092,0.4323201,0.01579632,13.83131,1.380331,1,18.80205
83.007,27.9617,3.506133,12.04364,8.484604,7.593704,-4.514877,58,59,0.2069739,8.601701,32.93267,0.1608065,209.5321,2.619151,-0.2537551,0.03560202,-0.8434445,0.3217843,-41.54442,-16.29359,-11.53553,-15.24554,64.70588,1.07,1230,27,24,0,31.76471,32.15686,0.8890529,16.55202,0.1,10.56999,371.9617,344,7.791402,5.391907,647,70,4170,0.97,1.463512,1.152344,1.56648,-0.00390625,0,0,0,0,0,0,0,0,0,0,0,0,12.98,0,0,0,0,0,0,0,0,0,56,44,0,0,0,0,0,0,0,0,0,0,0,0,0,0,0,0,0,0,0,0,0,0,0,0,0,0,0,0,0,0,0,0,0,0,0,0,0,0,0,0,0,0,0,0,0,0,0,0,0,0,0,0,0,0,0,13,0.2561818,0,21.22092,0.4323201,0.01579632,13.83131,1.380331,1,18.80205
84.007,28.58307,2.045397,12.04629,-10.38045,-7.59024,5.545623,58,59,0.2086146,4.921993,32.93267,0.1634505,119.5788,1.527952,-0.4204714,0.2299051,0.5410276,-0.3986742,-43.15867,-16.36203,-12.24067,-14.62091,58.43137,1.05,1254,27,24,0,25.88235,26.27451,0.6981623,16.55957,0.08,6.166285,359.666,344,4.446511,5.391654,647,70,4170,0.97,1.56648,1.324219,1.732888,-0.00390625,0,0,0,0,0,0,0,0,0,0,0,0,12.98,0,0,0,0,0,0,0,0,0,56,44,0,0,0,0,0,0,0,0,0,0,0,0,0,0,0,0,0,0,0,0,0,0,0,0,0,0,0,0,0,0,0,0,0,0,0,0,0,0,0,0,0,0,0,0,0,0,0,0,0,0,0,0,0,0,0,13,0.1924338,0,22.71396,0.4544507,0.01605604,13.3741,1.410149,1,18.80205
85.007,28.58307,2.045397,12.04629,1.202499,-13.60745,9.181763,58,59,0.2086146,4.921993,32.93267,0.1634505,119.5788,1.527952,-0.1083321,-0.9570896,-0.2675518,1.203655,-43.08241,-16.70613,-10.85531,-14.07916,58.43137,1.05,1254,27,24,0,25.88235,26.27451,0.6981623,16.55957,0.08,6.166285,359.666,344,4.446511,5.391654,647,70,4170,0.97,1.56648,1.324219,1.732888,-0.00390625,0,0,0,0,0,0,0,0,0,0,0,0,12.98,0,0,0,0,0,0,0,0,0,56,44,0,0,0,0,0,0,0,0,0,0,0,0,0,0,0,0,0,0,0,0,0,0,0,0,0,0,0,0,0,0,0,0,0,0,0,0,0,0,0,0,0,0,0,0,0,0,0,0,0,0,0,0,0,0,0,13,0.1924338,0,22.71396,0.4544507,0.01605604,13.3741,1.410149,1,18.80205
86.008,28.58307,2.074517,12.04909,-0.8602142,-1.511276,-1.484848,58,59,0.08019176,4.942796,32.93267,0.1662559,121.2813,1.549705,-0.03005936,-0.386584,-1.194922,1.182469,-40.92726,-15.52134,-10.03872,-14.60968,61.17647,1.02,1266.5,27,24,0,29.41176,29.41176,0.7691323,16.24679,0.05,6.254073,348.2451,344,4.509815,5.39142,647,70,4170,0.97,1.418616,1.070313,1.493768,-0.00390625,0,0,0,0,0,0,0,0,0,0,0,0,12.98,0,0,0,0,0,0,0,0,0,56,44,0,0,0,0,0,0,0,0,0,0,0,0,0,0,0,0,0,0,0,0,0,0,0,0,0,0,0,0,0,0,0,0,0,0,0,0,0,0,0,0,0,0,0,0,0,0,0,0,0,0,0,0,0,0,0,13,0.1395252,0,20.56993,0.4774106,0.01633162,12.94941,1.439349,1,18.80205
87.008,28.58307,2.074517,12.04909,3.58815,-2.780945,-3.38559,58,59,0.08019176,4.942796,32.93267,0.1662559,121.2813,1.549705,0.005677932,-0.4137734,0.8648391,2.710047,-43.43244,-15.69849,-8.325182,-12.66881,61.17647,1.02,1266.5,27,24,0,29.41176,29.41176,0.7691323,16.24679,0.05,6.254073,348.2451,344,4.509815,5.39142,647,70,4170,0.97,1.418616,1.070313,1.493768,-0.00390625,0,0,0,0,0,0,0,0,0,0,0,0,12.98,0,0,0,0,0,0,0,0,0,56,44,0,0,0,0,0,0,0,0,0,0,0,0,0,0,0,0,0,0,0,0,0,0,0,0,0,0,0,0,0,0,0,0,0,0,0,0,0,0,0,0,0,0,0,0,0,0,0,0,0,0,0,0,0,0,0,13,0.1395252,0,20.56993,0.4774106,0.01633162,12.94941,1.439349,1,18.80205
88.008,29.20445,2.297318,12.05208,4.629623,7.517288,-5.565475,58,59,0.0797845,5.386461,32.93267,0.1692403,131.4492,1.716142,-0.007736783,-0.1841508,0.7754101,2.937746,-44.11053,-16.43332,-8.207858,-12.12846,67.05882,1.05,1287,27,24,0,30.98039,31.76471,0.8054883,16.99535,0.08,6.925755,338.3874,344,4.887907,5.391281,647,70,4170,0.97,1.341512,0.9257813,1.42008,-0.00390625,0,0,0,0,0,0,0,0,0,0,0,0,12.98,0,0,0,0,0,0,0,0,0,56,44,0,0,0,0,0,0,0,0,0,0,0,0,0,0,0,0,0,0,0,0,0,0,0,0,0,0,0,0,0,0,0,0,0,0,0,0,0,0,0,0,0,0,0,0,0,0,0,0,0,0,0,0,0,0,0,13,0.1241228,0,19.45192,0.5001377,0.01662478,12.58286,1.474435,1,18.80205
89.008,29.20445,2.297318,12.05208,7.079651,5.733963,2.701874,58,59,0.0797845,5.386461,32.93267,0.1692403,131.4492,1.716142,-0.3810118,-0.341337,0.5477913,0.6680664,-42.85386,-15.74955,-10.20226,-13.72368,67.05882,1.05,1287,27,24,0,30.98039,31.76471,0.8054883,16.99535,0.08,6.925755,338.3874,344,4.887907,5.391281,647,70,4170,0.97,1.341512,0.9257813,1.42008,-0.00390625,0,0,0,0,0,0,0,0,0,0,0,0,12.98,0,0,0,0,0,0,0,0,0,56,44,0,0,0,0,0,0,0,0,0,0,0,0,0,0,0,0,0,0,0,0,0,0,0,0,0,0,0,0,0,0,0,0,0,0,0,0,0,0,0,0,0,0,0,0,0,0,0,0,0,0,0,0,0,0,0,13,0.1241228,0,19.45192,0.5001377,0.01662478,12.58286,1.474435,1,18.80205
90.009,29.82582,2.75767,12.0564,0.04537963,-0.6476898,2.08783,58,59,0.145912,6.278032,32.93267,0.1735674,154.5025,2.060034,-0.4215046,-0.5639861,0.4523085,0.3815114,-43.36834,-15.53435,-10.48061,-14.27872,70.98039,1.1,1325.5,27,24,0,32.15686,32.54902,0.8680316,18.33727,0.13,8.313584,328.6378,344,5.745141,5.3914,647,70,4170,0.97,1.435696,1.09375,1.483032,-0.00390625,0,0,0,0,0,0,0,0,0,0,0,0,12.98,0,0,0,0,0,0,0,0,0,56,44,0,0,0,0,0,0,0,0,0,0,0,0,0,0,0,0,0,0,0,0,0,0,0,0,0,0,0,0,0,0,0,0,0,0,0,0,0,0,0,0,0,0,0,0,0,0,0,0,0,0,0,0,0,0,0,13,-0.0480209,0,20.81759,0.528142,0.01704985,12.22032,1.503256,1,18.80205
91.008,29.82582,2.75767,12.0564,-4.039581,-3.767014,-0.2967377,58,59,0.145912,6.278032,32.93267,0.1735674,154.5025,2.060034,-0.0681119,-0.4239722,-0.6590902,1.481164,-42.76693,-15.71762,-9.208242,-13.188,70.98039,1.1,1325.5,27,24,0,32.15686,32.54902,0.8680316,18.33727,0.13,8.313584,328.6378,344,5.745141,5.3914,647,70,4170,0.97,1.435696,1.09375,1.483032,-0.00390625,0,0,0,0,0,0,0,0,0,0,0,0,12.98,0,0,0,0,0,0,0,0,0,56,44,0,0,0,0,0,0,0,0,0,0,0,0,0,0,0,0,0,0,0,0,0,0,0,0,0,0,0,0,0,0,0,0,0,0,0,0,0,0,0,0,0,0,0,0,0,0,0,0,0,0,0,0,0,0,0,13,-0.0480209,0,20.81759,0.528142,0.01704985,12.22032,1.503256,1,18.80205
92.008,30.44719,2.902317,12.06017,15.06,16.26297,0.6426239,58,59,0.1458669,6.516382,32.93267,0.1773367,159.2881,2.168088,0.8649379,1.092686,2.057829,2.962832,-44.43639,-16.42389,-7.528239,-12.15047,64.70588,1.07,1344,27,24,0,30.58824,30.58824,0.8380201,18.08611,0.1,8.749654,321.3496,344.1,5.923091,5.391549,647,70,4170,0.97,1.511824,1.238281,1.598688,-0.00390625,0,0,0,0,0,0,0,0,0,0,0,0,12.98,0,0,0,0,0,0,0,0,0,56,44,0,0,0,0,0,0,0,0,0,0,0,0,0,0,0,0,0,0,0,0,0,0,0,0,0,0,0,0,0,0,0,0,0,0,0,0,0,0,0,0,0,0,0,0,0,0,0,0,0,0,0,0,0,0,0,13,-0.04803087,0,21.92145,0.5518496,0.01742011,11.94931,1.533361,1,18.80205
93.008,31.06856,2.471521,12.06349,28.97523,22.23198,-18.10561,58,59,0.1567491,5.451791,32.93267,0.1806544,132.9318,1.846275,0.1932219,-0.699458,0.8964374,1.128899,-43.38269,-15.92457,-9.790473,-12.68422,76.47059,1.04,1368,27,24,0,31.76471,32.15686,0.7720563,17.89294,0.07,7.450927,313.1476,344.1,4.943038,5.391408,647,70,4170,0.97,1.462536,1.148438,1.555256,-0.00390625,0,0,0,0,0,0,0,0,0,0,0,0,12.98,0,0,0,0,0,0,0,0,0,56,44,0,0,0,0,0,0,0,0,0,0,0,0,0,0,0,0,0,0,0,0,0,0,0,0,0,0,0,0,0,0,0,0,0,0,0,0,0,0,0,0,0,0,0,0,0,0,0,0,0,0,0,0,0,0,0,13,0.1327256,0,21.20677,0.5768985,0.01774601,11.64432,1.562165,1,18.80205
94.008,31.06856,2.471521,12.06349,12.63316,8.613358,-5.835907,58,59,0.1567491,5.451791,32.93267,0.1806544,132.9318,1.846275,-0.9568048,0.4223896,0.8994269,-1.315417,-42.60585,-14.88066,-12.39081,-14.48624,76.47059,1.04,1368,27,24,0,31.76471,32.15686,0.7720563,17.89294,0.07,7.450927,313.1476,344.1,4.943038,5.391408,647,70,4170,0.97,1.462536,1.148438,1.555256,-0.00390625,0,0,0,0,0,0,0,0,0,0,0,0,12.98,0,0,0,0,0,0,0,0,0,56,44,0,0,0,0,0,0,0,0,0,0,0,0,0,0,0,0,0,0,0,0,0,0,0,0,0,0,0,0,0,0,0,0,0,0,0,0,0,0,0,0,0,0,0,0,0,0,0,0,0,0,0,0,0,0,0,13,0.1327256,0,21.20677,0.5768985,0.01774601,11.64432,1.562165,1,18.80205
95.009,31.06856,2.37476,12.06657,-12.23569,-7.736084,-1.497437,58,59,0.07700968,6.344459,32.93267,0.1837325,127.7275,1.773993,-0.682727,-0.01020107,-2.012853,-1.942202,-35.58623,-17.91701,-15.61949,-16.45779,57.64706,1.04,1129.5,27,24,0,28.62745,28.62745,0.6166902,14.77345,0.07,7.159223,305.6936,344.2,4.749517,5.39122,647,70,4170,0.97,1.660664,1.453125,1.567456,-0.00390625,0,0,0,0,0,0,0,0,0,0,0,0,12.98,0,0,0,0,0,0,0,0,0,56,44,0,0,0,0,0,0,0,0,0,0,0,0,0,0,0,0,0,0,0,0,0,0,0,0,0,0,0,0,0,0,0,0,0,0,0,0,0,0,0,0,0,0,0,0,0,0,0,0,0,0,0,0,0,0,0,13,0.1478417,0,24.07963,0.6010347,0.01804838,11.36715,1.598307,1,18.80205
96.009,31.06856,2.37476,12.06657,0.9227753,-0.7067719,-0.1151733,58,59,0.07700968,6.344459,32.93267,0.1837325,127.7275,1.773993,0.3790101,0.2544442,-0.760032,-0.4949219,-41.54002,-15.69815,-10.85377,-13.33922,57.64706,1.04,1129.5,27,24,0,28.62745,28.62745,0.6166902,14.77345,0.07,7.159223,305.6936,344.3,4.749517,5.39122,647,70,4170,0.97,1.660664,1.453125,1.567456,-0.00390625,0,0,0,0,0,0,0,0,0,0,0,0,12.98,0,0,0,0,0,0,0,0,0,56,44,0,0,0,0,0,0,0,0,0,0,0,0,0,0,0,0,0,0,0,0,0,0,0,0,0,0,0,0,0,0,0,0,0,0,0,0,0,0,0,0,0,0,0,0,0,0,0,0,0,0,0,0,0,0,0,13,0.1478417,0,24.07963,0.6010347,0.01804838,11.36715,1.598307,1,18.80205
97.009,31.68993,2.296388,12.07028,-7.468658,-8.645844,9.782272,58,59,0.06428891,6.431156,32.93267,0.1874463,121.0904,1.715447,0.9422249,-0.9864244,-0.7380923,3.157309,-43.60271,-17.25972,-7.286654,-11.63904,71.37255,1.1,1077.5,27,24,0,33.33333,33.33333,0.9580974,14.90638,0.13,6.922952,296.7611,344.3,4.502718,5.390897,647,70,4170,0.97,1.385432,0.9921875,1.328824,-0.00390625,0,0,0,0,0,0,0,0,0,0,0,0,12.98,0,0,0,0,0,0,0,0,0,56,44,0,0,0,0,0,0,0,0,0,0,0,0,0,0,0,0,0,0,0,0,0,0,0,0,0,0,0,0,0,0,0,0,0,0,0,0,0,0,0,0,0,0,0,0,0,0,0,0,0,0,0,0,0,0,0,13,0.1308231,0,20.08876,0.6316401,0.01841319,11.03499,1.627401,1,18.80205
98.009,31.68993,2.296388,12.07028,9.767212,9.460037,6.840179,58,59,0.06428891,6.431156,32.93267,0.1874463,121.0904,1.715447,0.07794432,-0.5821301,-1.128884,-1.210235,-41.6062,-17.01867,-11.88939,-13.73088,71.37255,1.1,1077.5,27,24,0,33.33333,33.33333,0.9580974,14.90638,0.13,6.922952,296.7611,344.4,4.502718,5.390897,647,70,4170,0.97,1.385432,0.9921875,1.328824,-0.00390625,0,0,0,0,0,0,0,0,0,0,0,0,12.98,0,0,0,0,0,0,0,0,0,56,44,0,0,0,0,0,0,0,0,0,0,0,0,0,0,0,0,0,0,0,0,0,0,0,0,0,0,0,0,0,0,0,0,0,0,0,0,0,0,0,0,0,0,0,0,0,0,0,0,0,0,0,0,0,0,0,13,0.1308231,0,20.08876,0.6316401,0.01841319,11.03499,1.627401,1,18.80205
99.009,31.68993,2.941331,12.0741,5.071381,8.918777,-10.42209,58,59,0.06428891,8.025087,32.93267,0.1912622,155.0988,2.197232,-0.2827642,0.2921781,-0.7873638,-2.242983,-39.14797,-16.35707,-13.8395,-16.07227,76.07843,1.13,1106,27,24,0,33.33333,33.72549,1.039018,15.71795,0.16,8.86727,291.4515,344.4,5.767311,5.391008,666,70,4170,0.97,1.316624,0.875,1.376648,-0.00390625,0,0,0,0,0,0,0,0,0,0,0,0,12.98,0,0,0,0,0,0,0,0,0,52,43,0,0,0,0,0,0,0,0,0,0,0,0,0,0,0,0,0,0,0,0,0,0,0,0,0,0,0,0,0,0,0,0,0,0,0,0,0,0,0,0,0,0,0,0,0,0,0,0,0,0,0,0,0,0,0,13,0.1151129,0,19.09105,0.6562403,0.01878804,10.83756,1.664847,1,18.80205
100.009,31.68993,2.941331,12.0741,5.97644,8.332672,-4.887299,58,59,0.06428891,8.025087,32.93267,0.1912622,155.0988,2.197232,-0.07533752,-0.1434519,-0.2781193,-0.5698337,-38.51192,-15.71456,-12.75291,-15.85963,76.07843,1.13,1106,27,24,0,33.33333,33.72549,1.039018,15.71795,0.16,8.86727,291.4515,344.4,5.767311,5.391008,666,70,4170,0.97,1.316624,0.875,1.376648,-0.00390625,0,0,0,0,0,0,0,0,0,0,0,0,12.98,0,0,0,0,0,0,0,0,0,52,43,0,0,0,0,0,0,0,0,0,0,0,0,0,0,0,0,0,0,0,0,0,0,0,0,0,0,0,0,0,0,0,0,0,0,0,0,0,0,0,0,0,0,0,0,0,0,0,0,0,0,0,0,0,0,0,13,0.1151129,0,19.09105,0.6562403,0.01878804,10.83756,1.664847,1,18.80205
101.009,32.93267,3.257736,12.07959,11.83864,4.478943,-4.261566,58,59,0.1234383,8.781178,32.93267,0.1967586,165.3007,2.433593,-0.4675025,-0.2041659,0.1493226,-0.958944,-39.34549,-15.71644,-13.60578,-15.01979,76.86275,1.14,1119.5,27,24,0,34.90196,35.29412,1.051785,16.0506,0.17,9.82114,285.4178,344.5,6.146667,5.391317,666,70,4170,0.97,1.290272,0.8125,1.352736,-0.00390625,0,0,0,0,0,0,0,0,0,0,0,0,12.98,0,0,0,0,0,0,0,0,0,52,43,0,0,0,0,0,0,0,0,0,0,0,0,0,0,0,0,0,0,0,0,0,0,0,0,0,0,0,0,0,0,0,0,0,0,0,0,0,0,0,0,0,0,0,0,0,0,0,0,0,0,0,0,0,0,0,13,0.114116,0,18.70894,0.6893703,0.01932795,10.61319,1.693973,1,18.80205
102.009,32.93267,3.257736,12.07959,-5.917023,-3.376556,0.5807343,58,59,0.1234383,8.781178,32.93267,0.1967586,165.3007,2.433593,0.2459296,-0.2810593,-0.5250748,-1.850323,-40.05832,-16.49549,-13.13409,-15.81523,76.86275,1.14,1119.5,27,24,0,34.90196,35.29412,1.051785,16.0506,0.17,9.82114,285.4178,344.6,6.146667,5.391317,666,70,4170,0.97,1.290272,0.8125,1.352736,-0.00390625,0,0,0,0,0,0,0,0,0,0,0,0,12.98,0,0,0,0,0,0,0,0,0,52,43,0,0,0,0,0,0,0,0,0,0,0,0,0,0,0,0,0,0,0,0,0,0,0,0,0,0,0,0,0,0,0,0,0,0,0,0,0,0,0,0,0,0,0,0,0,0,0,0,0,0,0,0,0,0,0,13,0.114116,0,18.70894,0.6893703,0.01932795,10.61319,1.693973,1,18.80205
103.009,32.93267,3.199083,12.08373,1.617203,4.055099,-8.700714,58,59,0.1234383,8.394381,32.93267,0.200899,162.3246,2.389778,0.1114862,0.07000895,1.125999,-1.816534,-40.66549,-16.72214,-13.25447,-15.42949,74.90196,1.13,1150,28,23,0,33.72549,33.72549,1.009981,16.34325,0.16,9.644319,280.9421,344.6,6.036001,5.391501,666,70,4170,0.97,1.379088,1,1.435208,-0.00390625,0,0,0,0,0,0,0,0,0,0,0,0,12.98,0,0,0,0,0,0,0,0,0,52,43,0,0,0,0,0,0,0,0,0,0,0,0,0,0,0,0,0,0,0,0,0,0,0,0,0,0,0,0,0,0,0,0,0,0,0,0,0,0,0,0,0,0,0,0,0,0,0,0,0,0,0,0,0,0,0,13,0.09807766,0,19.99678,0.7150904,0.01973468,10.44677,1.72861,1,18.80205
104.009,32.93267,3.199083,12.08373,-19.71156,-7.47136,9.831451,58,59,0.1234383,8.394381,32.93267,0.200899,162.3246,2.389778,-0.09131952,0.3756543,-1.160226,-1.924647,-39.52347,-15.75199,-13.90028,-15.63737,74.90196,1.13,1150,28,23,0,33.72549,33.72549,1.009981,16.34325,0.16,9.644319,280.9421,344.7,6.036001,5.391501,666,70,4170,0.97,1.379088,1,1.435208,-0.00390625,0,0,0,0,0,0,0,0,0,0,0,0,12.98,0,0,0,0,0,0,0,0,0,52,43,0,0,0,0,0,0,0,0,0,0,0,0,0,0,0,0,0,0,0,0,0,0,0,0,0,0,0,0,0,0,0,0,0,0,0,0,0,0,0,0,0,0,0,0,0,0,0,0,0,0,0,0,0,0,0,13,0.09807766,0,19.99678,0.7150904,0.01973468,10.44677,1.72861,1,18.80205
105.009,33.55404,3.073627,12.08856,5.819046,3.566422,-1.816589,58,59,0.06624494,8.019856,33.55404,0.2057258,153.0707,2.296061,0.2790822,-1.280385,0.07941058,2.746998,-40.77,-17.90689,-10.96804,-13.05791,67.05882,1.12,1156.5,28,23,0,30.98039,30.58824,0.9725959,16.23609,0.15,9.266106,275.5727,344.6,5.691898,5.39162,666,70,4170,0.97,1.51524,1.242188,1.619184,-0.00390625,0,0,0,0,0,0,0,0,0,0,0,0,12.98,0,0,0,0,0,0,0,0,0,52,43,0,0,0,0,0,0,0,0,0,0,0,0,0,0,0,0,0,0,0,0,0,0,0,0,0,0,0,0,0,0,0,0,0,0,0,0,0,0,0,0,0,0,0,0,0,0,0,0,0,0,0,0,0,0,0,13,0.1113266,0,21.97098,0.7465394,0.02020882,10.24711,1.758066,1,18.80205
106.009,33.55404,3.073627,12.08856,-13.84132,-12.29283,7.908081,58,59,0.06624494,8.019856,33.55404,0.2057258,153.0707,2.296061,0.3008541,0.878292,1.059348,1.385697,-42.34501,-17.29608,-12.01267,-12.38274,67.05882,1.12,1156.5,28,23,0,30.98039,30.58824,0.9725959,16.23609,0.15,9.266106,275.5727,344.6,5.691898,5.39162,666,70,4170,0.97,1.51524,1.242188,1.619184,-0.00390625,0,0,0,0,0,0,0,0,0,0,0,0,12.98,0,0,0,0,0,0,0,0,0,52,43,0,0,0,0,0,0,0,0,0,0,0,0,0,0,0,0,0,0,0,0,0,0,0,0,0,0,0,0,0,0,0,0,0,0,0,0,0,0,0,0,0,0,0,0,0,0,0,0,0,0,0,0,0,0,0,13,0.1113266,0,21.97098,0.7465394,0.02020882,10.24711,1.758066,1,18.80205
107.009,34.17542,2.484847,12.09184,34.81084,16.17307,-1.990158,58,59,0.1447701,6.483582,34.17542,0.2090017,121.4987,1.85623,-0.7961934,-0.07142834,2.266208,-1.873755,-40.14901,-18.30027,-15.5813,-13.59552,61.17647,1.06,1156.5,28,23,0,28.23529,27.84314,0.8733138,15.3663,0.09,7.491102,270.1812,344.6,4.5179,5.391334,666,70,4170,0.97,1.591856,1.359375,1.710928,-0.00390625,0,0,0,0,0,0,0,0,0,0,0,0,12.98,0,0,0,0,0,0,0,0,0,52,43,0,0,0,0,0,0,0,0,0,0,0,0,0,0,0,0,0,0,0,0,0,0,0,0,0,0,0,0,0,0,0,0,0,0,0,0,0,0,0,0,0,0,0,0,0,0,0,0,0,0,0,0,0,0,0,13,0.1110748,0,23.08191,0.7735614,0.02053062,10.04662,1.788261,1,18.80205
108.009,34.17542,2.484847,12.09184,17.75101,20.56447,-15.45454,58,59,0.1447701,6.483582,34.17542,0.2090017,121.4987,1.85623,-0.1231721,-0.7009122,-0.6363299,-0.7986887,-42.77435,-17.40208,-13.43505,-13.48074,61.17647,1.06,1156.5,28,23,0,28.23529,27.84314,0.8733138,15.3663,0.09,7.491102,270.1812,344.7,4.5179,5.391334,666,70,4170,0.97,1.591856,1.359375,1.710928,-0.00390625,0,0,0,0,0,0,0,0,0,0,0,0,12.98,0,0,0,0,0,0,0,0,0,52,43,0,0,0,0,0,0,0,0,0,0,0,0,0,0,0,0,0,0,0,0,0,0,0,0,0,0,0,0,0,0,0,0,0,0,0,0,0,0,0,0,0,0,0,0,0,0,0,0,0,0,0,0,0,0,0,13,0.1110748,0,23.08191,0.7735614,0.02053062,10.04662,1.788261,1,18.80205
109.009,34.17542,2.107516,12.09469,3.672424,3.802216,-10.56458,58,59,0.07852515,5.510945,34.17542,0.2118521,103.0488,1.574356,-0.3105094,-0.5285335,-0.872097,-1.212796,-41.57773,-15.37115,-12.98133,-14.07755,59.60784,1.04,1154,28,23,0,26.27451,26.27451,0.8119197,15.04378,0.07,6.353557,264.4604,344.8,3.831844,5.390826,666,70,4170,0.97,1.606496,1.378906,1.687016,-0.00390625,0,0,0,0,0,0,0,0,0,0,0,0,12.98,0,0,0,0,0,0,0,0,0,52,43,0,0,0,0,0,0,0,0,0,0,0,0,0,0,0,0,0,0,0,0,0,0,0,0,0,0,0,0,0,0,0,0,0,0,0,0,0,0,0,0,0,0,0,0,0,0,0,0,0,0,0,0,0,0,0,13,0.09784929,0,23.29419,0.8010733,0.02081062,9.833897,1.817746,1,18.80205
110.009,34.17542,2.107516,12.09469,-12.67947,-25.33945,10.4211,58,59,0.07852515,5.510945,34.17542,0.2118521,103.0488,1.574356,-0.3653515,0.116378,1.084769,2.35093,-42.70134,-17.3981,-11.41553,-12.66696,59.60784,1.04,1154,28,23,0,26.27451,26.27451,0.8119197,15.04378,0.07,6.353557,264.4604,345,3.831844,5.390826,666,70,4170,0.97,1.606496,1.378906,1.687016,-0.00390625,0,0,0,0,0,0,0,0,0,0,0,0,12.98,0,0,0,0,0,0,0,0,0,52,43,0,0,0,0,0,0,0,0,0,0,0,0,0,0,0,0,0,0,0,0,0,0,0,0,0,0,0,0,0,0,0,0,0,0,0,0,0,0,0,0,0,0,0,0,0,0,0,0,0,0,0,0,0,0,0,13,0.09784929,0,23.29419,0.8010733,0.02081062,9.833897,1.817746,1,18.80205
111.009,34.17542,1.917393,12.09722,7.838364,10.11618,1.041748,58,59,-2.775558E-16,5.066476,34.17542,0.214386,93.75254,1.43233,1.11992,-1.015026,-0.5253368,2.082479,-43.01641,-17.73629,-10.14536,-13.20088,49.41177,1.03,1142,26,23,0,25.4902,25.09804,0.759756,14.74419,0.06,5.78039,258.8531,345,3.486166,5.390202,666,70,4170,0.97,1.675304,1.480469,1.73972,-0.00390625,0,0,0,0,0,0,0,0,0,0,0,0,12.98,0,0,0,0,0,0,0,0,0,52,43,0,0,0,0,0,0,0,0,0,0,0,0,0,0,0,0,0,0,0,0,0,0,0,0,0,0,0,0,0,0,0,0,0,0,0,0,0,0,0,0,0,0,0,0,0,0,0,0,0,0,0,0,0,0,0,13,0.0819014,0,24.29191,0.828215,0.02105953,9.62539,1.852764,1,18.80205
112.010,33.55404,1.787553,12.10002,28.50191,26.13289,-19.1557,58,59,-0.06631958,4.73583,34.17542,0.2171812,89.02248,1.335337,0.2024186,-0.02080136,-0.6596993,-2.497425,-39.75841,-16.41594,-16.24171,-15.82405,62.7451,1.05,1139,26,23,0,29.80392,29.80392,0.8577107,15.09123,0.08,5.388959,252.6454,345.1,3.31028,5.389419,666,70,4170,0.97,1.58356,1.347656,1.619184,-0.00390625,0,0,0,0,0,0,0,0,0,0,0,0,12.98,0,0,0,0,0,0,0,0,0,52,43,0,0,0,0,0,0,0,0,0,0,0,0,0,0,0,0,0,0,0,0,0,0,0,0,0,0,0,0,0,0,0,0,0,0,0,0,0,0,0,0,0,0,0,0,0,0,0,0,0,0,0,0,0,0,0,13,0.05323555,0,22.96162,0.8596286,0.0213341,9.394559,1.882235,1,18.80205
113.010,33.55404,1.787553,12.10002,16.89488,5.623642,-4.523392,58,59,-0.06631958,4.73583,34.17542,0.2171812,89.02248,1.335337,-0.3991097,1.404446,-0.07533596,-0.6910064,-40.32136,-15.5751,-11.90919,-14.47363,62.7451,1.05,1139,26,23,0,29.80392,29.80392,0.8577107,15.09123,0.08,5.388959,252.6454,345.1,3.31028,5.389419,666,70,4170,0.97,1.58356,1.347656,1.619184,-0.00390625,0,0,0,0,0,0,0,0,0,0,0,0,12.98,0,0,0,0,0,0,0,0,0,52,43,0,0,0,0,0,0,0,0,0,0,0,0,0,0,0,0,0,0,0,0,0,0,0,0,0,0,0,0,0,0,0,0,0,0,0,0,0,0,0,0,0,0,0,0,0,0,0,0,0,0,0,0,0,0,0,13,0.05323555,0,22.96162,0.8596286,0.0213341,9.394559,1.882235,1,18.80205
114.010,33.55404,2.172574,12.10289,31.84061,-56.51459,-55.34375,58,59,-0.06631958,5.720723,34.17542,0.2200561,108.197,1.622956,0.100066,0.1493951,-0.871241,1.226102,-33.74494,-26.59311,-21.22473,-10.11044,60.78431,1.07,1146,26,23,0,28.62745,28.62745,0.823094,15.47319,0.1,6.549688,248.3084,345.2,4.023282,5.388983,666,70,4170,0.97,1.587464,1.359375,1.670424,-0.00390625,0,0,0,0,0,0,0,0,0,0,0,0,12.98,0,0,0,0,0,0,0,0,0,52,43,0,0,0,0,0,0,0,0,0,0,0,0,0,0,0,0,0,0,0,0,0,0,0,0,0,0,0,0,0,0,0,0,0,0,0,0,0,0,0,0,0,0,0,0,0,0,0,0,0,0,0,0,0,0,0,13,0.05323555,0,23.01823,0.8862209,0.02161651,9.23329,1.912327,1,18.80205
115.010,33.55404,2.172574,12.10289,-13.16501,-9.384399,1.217911,58,59,-0.06631958,5.720723,34.17542,0.2200561,108.197,1.622956,0.6886419,0.3558159,0.7126637,2.547071,-35.75412,-28.69995,-20.68589,-7.512802,60.78431,1.07,1146,26,23,0,28.62745,28.62745,0.823094,15.47319,0.1,6.549688,248.3084,345.3,4.023282,5.388983,666,70,4170,0.97,1.587464,1.359375,1.670424,-0.00390625,0,0,0,0,0,0,0,0,0,0,0,0,12.98,0,0,0,0,0,0,0,0,0,52,43,0,0,0,0,0,0,0,0,0,0,0,0,0,0,0,0,0,0,0,0,0,0,0,0,0,0,0,0,0,0,0,0,0,0,0,0,0,0,0,0,0,0,0,0,0,0,0,0,0,0,0,0,0,0,0,13,0.05323555,0,23.01823,0.8862209,0.02161651,9.23329,1.912327,1,18.80205
116.010,33.55404,1.754197,12.10526,1.555786,5.286346,-2.133209,58,59,-2.775558E-16,4.715775,34.17542,0.2224202,87.36134,1.31042,0.3704326,-0.05387419,-0.2541198,2.441949,-36.73904,-29.30278,-20.23907,-8.436111,30.19608,1.04,1122.5,26,23,0,21.17647,20.78431,0.6818373,14.73097,0.07,5.288402,243.5838,345.3,3.248511,5.3883,666,70,4170,0.97,2.338984,2.113281,2.846504,-0.00390625,0,0,0,0,0,0,0,0,0,0,0,0,12.98,0,0,0,0,0,0,0,0,0,52,43,0,0,0,0,0,0,0,0,0,0,0,0,0,0,0,0,0,0,0,0,0,0,0,0,0,0,0,0,0,0,0,0,0,0,0,0,0,0,0,0,0,0,0,0,0,0,0,0,0,0,0,0,0,0,0,13,0.04037777,0,33.91527,0.9131158,0.02184874,9.057606,1.941749,1,18.80205
117.010,33.55404,1.754197,12.10526,-3.855331,-2.646286,3.424805,58,59,-2.775558E-16,4.715775,34.17542,0.2224202,87.36134,1.31042,-0.7075653,-0.1938691,0.5190569,1.096585,-39.12576,-28.65519,-20.59486,-7.381973,30.19608,1.04,1122.5,26,23,0,21.17647,20.78431,0.6818373,14.73097,0.07,5.288402,243.5838,345.4,3.248511,5.3883,666,70,4170,0.97,2.338984,2.113281,2.846504,-0.00390625,0,0,0,0,0,0,0,0,0,0,0,0,12.98,0,0,0,0,0,0,0,0,0,52,43,0,0,0,0,0,0,0,0,0,0,0,0,0,0,0,0,0,0,0,0,0,0,0,0,0,0,0,0,0,0,0,0,0,0,0,0,0,0,0,0,0,0,0,0,0,0,0,0,0,0,0,0,0,0,0,13,0.04037777,0,33.91527,0.9131158,0.02184874,9.057606,1.941749,1,18.80205
118.010,33.55404,1.754197,12.10526,-9.026688,22.08957,-27.97652,58,59,-2.775558E-16,4.715775,34.17542,0.2224202,87.36134,1.31042,0.5469982,-1.612583,-0.9996672,1.808713,-47.98933,-23.03496,-7.47631,-7.099792,30.19608,1.04,1122.5,26,23,0,21.17647,20.78431,0.6818373,14.73097,0.07,5.288402,243.5838,345.4,3.248511,5.3883,666,70,4170,0.97,2.338984,2.113281,2.846504,-0.00390625,0,0,0,0,0,0,0,0,0,0,0,0,12.98,0,0,0,0,0,0,0,0,0,52,43,0,0,0,0,0,0,0,0,0,0,0,0,0,0,0,0,0,0,0,0,0,0,0,0,0,0,0,0,0,0,0,0,0,0,0,0,0,0,0,0,0,0,0,0,0,0,0,0,0,0,0,0,0,0,0,13,0.04037777,0,33.91527,0.9131158,0.02184874,9.057606,1.941749,1,18.80205
119.011,32.93267,0.7804072,12.10629,4.886978,-0.1071625,5.153793,61,62,-0.07820697,2.11967,34.17542,0.2234513,39.59861,0.5829796,-0.05958553,0.5510684,0.9436745,-0.2135994,-43.0423,-22.8268,-14.74767,-10.04184,38.43137,1.01,1111,25,23,0,25.4902,26.27451,0.6233943,14.15947,0.04,2.352704,237.9012,345.3,1.472465,5.387073,686,70,4170,0.97,1.616744,1.394531,1.553304,-0.00390625,0,0,0,0,0,0,0,0,0,0,0,0,12.98,0,0,0,0,0,0,0,0,0,51,42,0,0,0,0,0,0,0,0,0,0,0,0,0,0,0,0,0,0,0,0,0,0,0,0,0,0,0,0,0,0,0,0,0,0,0,0,0,0,0,0,0,0,0,0,0,0,0,0,0,0,0,0,0,0,0,13,0.02473637,0,23.44279,0.9392612,0.02195003,8.846299,1.994959,1,18.80205
120.010,32.93267,0.7804072,12.10629,12.25967,12.37729,-5.983688,61,62,-0.07820697,2.11967,34.17542,0.2234513,39.59861,0.5829796,0.07807594,-0.2852958,0.4037537,-1.752766,-41.95673,-19.74706,-14.76004,-13.05367,38.43137,1.01,1111,25,23,0,25.4902,26.27451,0.6233943,14.15947,0.04,2.352704,237.9012,345.3,1.472465,5.387073,686,70,4170,0.97,1.616744,1.394531,1.553304,-0.00390625,0,0,0,0,0,0,0,0,0,0,0,0,12.98,0,0,0,0,0,0,0,0,0,51,42,0,0,0,0,0,0,0,0,0,0,0,0,0,0,0,0,0,0,0,0,0,0,0,0,0,0,0,0,0,0,0,0,0,0,0,0,0,0,0,0,0,0,0,0,0,0,0,0,0,0,0,0,0,0,0,13,0.02473637,0,23.44279,0.9392612,0.02195003,8.846299,1.994959,1,18.80205
121.010,32.93267,1.402692,12.10961,-10.95021,-9.338013,12.45401,61,62,-0.07820697,3.729302,34.17542,0.2267765,71.17396,1.047839,-0.132777,0.2440686,-0.6087735,-3.207738,-40.57449,-18.90553,-16.80847,-14.71043,74.11765,1.09,1135,25,23,0,32.15686,32.94118,0.8865161,15.66348,0.12,4.228715,229.9664,345.3,2.646587,5.385532,686,70,4170,0.97,1.472784,1.171875,1.497184,-0.00390625,0,0,0,0,0,0,0,0,0,0,0,0,12.98,0,0,0,0,0,0,0,0,0,51,42,0,0,0,0,0,0,0,0,0,0,0,0,0,0,0,0,0,0,0,0,0,0,0,0,0,0,0,0,0,0,0,0,0,0,0,0,0,0,0,0,0,0,0,0,0,0,0,0,0,0,0,0,0,0,0,13,4.870845E-05,0,21.35537,0.9861289,0.02227667,8.551249,2.024071,1,18.80205
122.011,32.93267,1.402692,12.10961,-6.678162,-8.200226,7.367553,61,62,-0.07820697,3.729302,34.17542,0.2267765,71.17396,1.047839,-0.2090987,0.02103662,0.03052942,-3.114045,-39.1022,-18.20244,-17.03887,-15.22801,74.11765,1.09,1135,25,23,0,32.15686,32.94118,0.8865161,15.66348,0.12,4.228715,229.9664,345.4,2.646587,5.385532,686,70,4170,0.97,1.472784,1.171875,1.497184,-0.00390625,0,0,0,0,0,0,0,0,0,0,0,0,12.98,0,0,0,0,0,0,0,0,0,51,42,0,0,0,0,0,0,0,0,0,0,0,0,0,0,0,0,0,0,0,0,0,0,0,0,0,0,0,0,0,0,0,0,0,0,0,0,0,0,0,0,0,0,0,0,0,0,0,0,0,0,0,0,0,0,0,13,4.870845E-05,0,21.35537,0.9861289,0.02227667,8.551249,2.024071,1,18.80205
123.011,32.93267,3.006733,12.1136,-2.169922,1.540863,-5.57428,61,62,-2.775558E-16,7.976355,34.17542,0.2307669,152.5645,2.246089,-0.02232633,-0.002570079,-0.3564752,-2.418913,-38.45403,-18.27047,-16.70893,-15.02788,79.21568,1.12,1137.5,25,23,0,32.15686,31.76471,0.9644986,16.13003,0.15,9.064439,228.0214,345.4,5.673077,5.385638,686,70,4170,0.97,1.347856,0.9257813,1.382504,-0.00390625,0,0,0,0,0,0,0,0,0,0,0,0,12.98,0,0,0,0,0,0,0,0,0,51,42,0,0,0,0,0,0,0,0,0,0,0,0,0,0,0,0,0,0,0,0,0,0,0,0,0,0,0,0,0,0,0,0,0,0,0,0,0,0,0,0,0,0,0,0,0,0,0,0,0,0,0,0,0,0,0,13,4.870845E-05,0,19.54391,1.01204,0.02266865,8.478922,2.054923,1,18.80205
124.011,32.93267,3.006733,12.1136,-6.659973,7.597168,-9.652481,61,62,-2.775558E-16,7.976355,34.17542,0.2307669,152.5645,2.246089,0.4982975,0.004330217,-1.951882,-2.125011,-38.54111,-17.77266,-16.67905,-15.68474,79.21568,1.12,1137.5,25,23,0,32.15686,31.76471,0.9644986,16.13003,0.15,9.064439,228.0214,345.5,5.673077,5.385638,686,70,4170,0.97,1.347856,0.9257813,1.382504,-0.00390625,0,0,0,0,0,0,0,0,0,0,0,0,12.98,0,0,0,0,0,0,0,0,0,51,42,0,0,0,0,0,0,0,0,0,0,0,0,0,0,0,0,0,0,0,0,0,0,0,0,0,0,0,0,0,0,0,0,0,0,0,0,0,0,0,0,0,0,0,0,0,0,0,0,0,0,0,0,0,0,0,13,4.870845E-05,0,19.54391,1.01204,0.02266865,8.478922,2.054923,1,18.80205
125.013,33.55404,3.399031,12.11826,-8.139587,-3.556702,2.798553,61,62,0.07582189,8.868916,34.17542,0.2354197,169.2762,2.539144,0.2760816,-0.1186975,0.4913915,0.2120784,-40.72969,-18.50114,-14.82748,-14.40326,74.11765,1.12,1156.5,25,23,0,34.11765,33.33333,1.017927,16.39946,0.15,10.24711,226.4702,345.6,6.294497,5.385937,686,70,4170,0.97,1.379088,0.9960938,1.3298,-0.00390625,0,0,0,0,0,0,0,0,0,0,0,0,12.98,0,0,0,0,0,0,0,0,0,51,42,0,0,0,0,0,0,0,0,0,0,0,0,0,0,0,0,0,0,0,0,0,0,0,0,0,0,0,0,0,0,0,0,0,0,0,0,0,0,0,0,0,0,0,0,0,0,0,0,0,0,0,0,0,0,0,13,0.001964097,0,19.99678,1.039517,0.0231257,8.421241,2.083936,1,18.80205
126.011,33.55404,3.399031,12.11826,20.11057,-3.440536,-17.49031,61,62,0.07582189,8.868916,34.17542,0.2354197,169.2762,2.539144,-0.2820924,-0.2094754,0.3479041,-4.085763,-46.66147,-17.58428,-13.39996,-14.43845,74.11765,1.12,1156.5,25,23,0,34.11765,33.33333,1.017927,16.39946,0.15,10.24711,226.4702,345.6,6.294497,5.385937,686,70,4170,0.97,1.379088,0.9960938,1.3298,-0.00390625,0,0,0,0,0,0,0,0,0,0,0,0,12.98,0,0,0,0,0,0,0,0,0,51,42,0,0,0,0,0,0,0,0,0,0,0,0,0,0,0,0,0,0,0,0,0,0,0,0,0,0,0,0,0,0,0,0,0,0,0,0,0,0,0,0,0,0,0,0,0,0,0,0,0,0,0,0,0,0,0,13,0.001964097,0,19.99678,1.039517,0.0231257,8.421241,2.083936,1,18.80205
127.012,34.17542,3.325629,12.12256,5.869812,10.92252,0.6136475,61,62,0.1553812,8.526256,34.17542,0.2397283,162.6094,2.484311,-0.06958652,0.3718084,0.8935609,1.159173,-46.37917,-18.07518,-9.725029,-11.43872,80.39216,1.15,1177,28,23,0,34.5098,34.90196,1.046962,17.13721,0.18,10.02582,224.8461,345.7,6.046593,5.386135,686,70,4170,0.97,1.3298,0.9023438,1.41032,-0.00390625,0,0,0,0,0,0,0,0,0,0,0,0,12.98,0,0,0,0,0,0,0,0,0,51,42,0,0,0,0,0,0,0,0,0,0,0,0,0,0,0,0,0,0,0,0,0,0,0,0,0,0,0,0,0,0,0,0,0,0,0,0,0,0,0,0,0,0,0,0,0,0,0,0,0,0,0,0,0,0,0,13,0.002170922,0,19.2821,1.066188,0.02354895,8.360851,2.118987,1,18.80205
128.011,34.79679,3.383628,12.12788,2.558273,2.427002,-1.528335,61,62,0.1456892,8.487464,34.79679,0.2450415,162.491,2.527637,0.1841985,0.5125479,0.06826138,-1.019389,-43.86742,-15.14093,-11.17432,-14.18279,79.21568,1.15,1203,28,23,0,34.5098,34.90196,0.974686,17.34128,0.18,10.20067,222.9964,345.8,6.042188,5.386393,686,70,4170,0.97,1.350296,0.953125,1.375672,-0.00390625,0,0,0,0,0,0,0,0,0,0,0,0,12.98,0,0,0,0,0,0,0,0,0,51,42,0,0,0,0,0,0,0,0,0,0,0,0,0,0,0,0,0,0,0,0,0,0,0,0,0,0,0,0,0,0,0,0,0,0,0,0,0,0,0,0,0,0,0,0,0,0,0,0,0,0,0,0,0,0,0,13,0.0153969,0,19.57929,1.098858,0.02407088,8.29207,2.148786,1,18.80205
129.011,34.79679,3.383628,12.12788,29.82472,26.60699,-14.18298,61,62,0.1456892,8.487464,34.79679,0.2450415,162.491,2.527637,-0.5269279,-0.4386699,0.4788629,-1.420476,-42.88591,-15.4433,-11.95755,-14.93095,79.21568,1.15,1203,28,23,0,34.5098,34.90196,0.974686,17.34128,0.18,10.20067,222.9964,345.8,6.042188,5.386393,686,70,4170,0.97,1.350296,0.953125,1.375672,-0.00390625,0,0,0,0,0,0,0,0,0,0,0,0,12.98,0,0,0,0,0,0,0,0,0,51,42,0,0,0,0,0,0,0,0,0,0,0,0,0,0,0,0,0,0,0,0,0,0,0,0,0,0,0,0,0,0,0,0,0,0,0,0,0,0,0,0,0,0,0,0,0,0,0,0,0,0,0,0,0,0,0,13,0.0153969,0,19.57929,1.098858,0.02407088,8.29207,2.148786,1,18.80205
130.011,35.41816,3.366571,12.13241,26.33151,11.98152,13.1422,61,62,0.1436231,8.299796,35.41816,0.2495789,158.8355,2.514895,1.109917,-0.6350186,-1.878215,0.2095929,-44.31339,-15.36956,-9.897232,-13.84917,75.29412,1.14,1224,28,23,0,33.33333,33.72549,0.9629046,17.49057,0.17,10.14925,221.4079,345.8,5.906261,5.386583,686,70,4170,0.97,1.426912,1.09375,1.455216,-0.00390625,0,0,0,0,0,0,0,0,0,0,0,0,12.98,0,0,0,0,0,0,0,0,0,51,42,0,0,0,0,0,0,0,0,0,0,0,0,0,0,0,0,0,0,0,0,0,0,0,0,0,0,0,0,0,0,0,0,0,0,0,0,0,0,0,0,0,0,0,0,0,0,0,0,0,0,0,0,0,0,0,13,0.03089553,0,20.69022,1.127236,0.0245166,8.232999,2.17886,1,18.80205
131.011,35.41816,3.366571,12.13241,5.50705,25.27151,2.022675,61,62,0.1436231,8.299796,35.41816,0.2495789,158.8355,2.514895,-0.1888938,-0.4709041,-1.065405,-2.791419,-43.56747,-14.87766,-11.05609,-15.1241,75.29412,1.14,1224,28,23,0,33.33333,33.72549,0.9629046,17.49057,0.17,10.14925,221.4079,345.8,5.906261,5.386583,686,70,4170,0.97,1.426912,1.09375,1.455216,-0.00390625,0,0,0,0,0,0,0,0,0,0,0,0,12.98,0,0,0,0,0,0,0,0,0,51,42,0,0,0,0,0,0,0,0,0,0,0,0,0,0,0,0,0,0,0,0,0,0,0,0,0,0,0,0,0,0,0,0,0,0,0,0,0,0,0,0,0,0,0,0,0,0,0,0,0,0,0,0,0,0,0,13,0.03089553,0,20.69022,1.127236,0.0245166,8.232999,2.17886,1,18.80205
132.011,36.03953,3.041236,12.13649,10.24419,26.10585,-7.824554,61,62,0.1543323,7.406958,36.03953,0.2536538,141.0122,2.271864,-0.5155255,-0.807582,-0.8379178,-0.3096094,-38.41283,-18.54096,-13.50785,-15.88693,70.19608,1.11,1239,28,23,0,32.54902,32.54902,0.8994561,17.239,0.14,9.168456,219.3559,345.8,5.243506,5.386519,686,70,4170,0.97,1.475712,1.1875,1.547448,-0.00390625,0,0,0,0,0,0,0,0,0,0,0,0,12.98,0,0,0,0,0,0,0,0,0,51,42,0,0,0,0,0,0,0,0,0,0,0,0,0,0,0,0,0,0,0,0,0,0,0,0,0,0,0,0,0,0,0,0,0,0,0,0,0,0,0,0,0,0,0,0,0,0,0,0,0,0,0,0,0,0,0,13,0.05952728,0,21.39782,1.156357,0.02491687,8.156696,2.208314,1,18.80205
133.011,36.03953,3.041236,12.13649,5.513962,-0.4190674,0.4753571,61,62,0.1543323,7.406958,36.03953,0.2536538,141.0122,2.271864,0.07429198,0.1474488,-0.747166,-0.6746913,-36.81051,-15.86995,-13.2001,-17.25395,70.19608,1.11,1239,28,23,0,32.54902,32.54902,0.8994561,17.239,0.14,9.168456,219.3559,345.9,5.243506,5.386519,686,70,4170,0.97,1.475712,1.1875,1.547448,-0.00390625,0,0,0,0,0,0,0,0,0,0,0,0,12.98,0,0,0,0,0,0,0,0,0,51,42,0,0,0,0,0,0,0,0,0,0,0,0,0,0,0,0,0,0,0,0,0,0,0,0,0,0,0,0,0,0,0,0,0,0,0,0,0,0,0,0,0,0,0,0,0,0,0,0,0,0,0,0,0,0,0,13,0.05952728,0,21.39782,1.156357,0.02491687,8.156696,2.208314,1,18.80205
134.014,36.6609,2.642189,12.13998,6.899841,4.114655,-20.21411,61,62,0.1555574,6.404061,36.6609,0.2571412,120.4333,1.973767,0.03193032,0.5378165,-1.207692,1.350592,-36.1988,-19.87784,-11.71587,-16.51849,65.88235,1.08,1245,27,23,0,43.92157,69.41177,0.8280412,16.8543,0.11,7.965442,216.9467,345.9,4.478282,5.386208,686,70,4170,0.97,1.114104,0.3515625,1.19072,-0.00390625,0,0,0,0,0,0,0,0,0,0,0,0,12.98,0,0,0,0,0,0,0,0,0,51,42,0,0,0,0,0,0,0,0,0,0,0,0,0,0,0,0,0,0,0,0,0,0,0,0,0,0,0,0,0,0,0,0,0,0,0,0,0,0,0,0,0,0,0,0,0,0,0,0,0,0,0,0,0,0,0,13,0.07527094,0,16.15451,1.185274,0.02525945,8.067113,2.243749,1,18.80205
135.013,36.6609,2.642189,12.13998,-14.1124,-6.872375,-0.6157684,61,62,0.1555574,6.404061,36.6609,0.2571412,120.4333,1.973767,-0.19562,0.8191642,-1.571843,-1.095836,-33.21714,-24.32154,-23.19919,-13.16949,65.88235,1.08,1245,27,23,0,43.92157,69.41177,0.8280412,16.8543,0.11,7.965442,216.9467,345.9,4.478282,5.386208,686,70,4170,0.97,1.114104,0.3515625,1.19072,-0.00390625,0,0,0,0,0,0,0,0,0,0,0,0,12.98,0,0,0,0,0,0,0,0,0,51,42,0,0,0,0,0,0,0,0,0,0,0,0,0,0,0,0,0,0,0,0,0,0,0,0,0,0,0,0,0,0,0,0,0,0,0,0,0,0,0,0,0,0,0,0,0,0,0,0,0,0,0,0,0,0,0,13,0.07527094,0,16.15451,1.185274,0.02525945,8.067113,2.243749,1,18.80205
136.015,37.90364,11.81482,12.15884,5.949722,1.770142,1.365479,61,62,0.2088425,14.04188,37.90364,0.276002,520.8729,8.825902,-0.1656486,-0.4138089,0.2087588,-0.6388681,-34.34245,-32.74075,-29.79057,-2.373901,99.60784,2.08,2539,27,23,0,80,79.21568,3.913058,66.41838,1.11,35.61829,225.9635,345.9,19.36854,5.392249,686,70,4170,0.97,1.194624,0.6640625,1.120448,-0.00390625,0,0,0,0,0,0,0,0,0,0,0,0,12.98,0,0,0,0,0,0,0,0,0,51,42,0,0,0,0,0,0,0,0,0,0,0,0,0,0,0,0,0,0,0,0,0,0,0,0,0,0,0,0,0,0,0,0,0,0,0,0,0,0,0,0,0,0,0,0,0,0,0,0,0,0,0,0,0,0,0,13,0.1012958,0,17.32205,1.221445,0.02711218,8.402399,2.272796,1,18.80205
137.013,37.90364,11.81482,12.15884,-21.08192,-8.774033,11.07173,61,62,0.2088425,14.04188,37.90364,0.276002,520.8729,8.825902,-0.9591648,-1.613599,-1.504394,0.5476937,-34.96294,-32.51476,-27.83916,-4.070251,99.60784,2.08,2539,27,23,0,80,79.21568,3.913058,66.41838,1.11,35.61829,225.9635,346,19.36854,5.392249,686,70,4170,0.97,1.194624,0.6640625,1.120448,-0.00390625,0,0,0,0,0,0,0,0,0,0,0,0,12.98,0,0,0,0,0,0,0,0,0,51,42,0,0,0,0,0,0,0,0,0,0,0,0,0,0,0,0,0,0,0,0,0,0,0,0,0,0,0,0,0,0,0,0,0,0,0,0,0,0,0,0,0,0,0,0,0,0,0,0,0,0,0,0,0,0,0,13,0.1012958,0,17.32205,1.221445,0.02711218,8.402399,2.272796,1,18.80205
138.013,45.98147,31.16893,12.19944,-26.09442,-3.987305,15.06552,61,62,1.170596,30.25743,45.98147,0.3166037,1132.726,23.28381,0.9670233,-3.181925,-2.419728,5.913845,-41.03609,-38.30826,-30.67661,10.79869,99.60784,2.41,3108.5,27,23,0,79.21568,78.43137,3.348061,94.21719,1.44,93.96539,251.8493,346,42.12014,5.407954,705,70,4170,0.97,4.961984,3.324219,3.355,-0.00390625,0,0,0,0,0,0,0,0,0,0,0,0,12.96,0,0,0,0,0,0,0,0,0,77,46,0,0,0,0,0,0,0,0,0,0,0,0,0,0,0,0,0,0,0,0,0,0,0,0,0,0,0,0,0,0,0,0,0,0,0,0,0,0,0,0,0,0,0,0,0,0,0,0,0,0,0,0,0,0,0,13,0.3250316,0,71.94877,1.257116,0.03110057,9.364959,2.313767,1,18.80205
139.013,45.98147,31.16893,12.19944,-9.23143,-12.68735,-12.99216,61,62,1.170596,30.25743,45.98147,0.3166037,1132.726,23.28381,0.303947,0.5514628,-0.1431555,5.484999,-38.73993,-40.2215,-26.11858,7.931366,99.60784,2.41,3108.5,27,23,0,79.21568,78.43137,3.348061,94.21719,1.44,93.96539,251.8493,346,42.12014,5.407954,705,70,4170,0.97,4.961984,3.324219,3.355,-0.00390625,0,0,0,0,0,0,0,0,0,0,0,0,12.96,0,0,0,0,0,0,0,0,0,77,46,0,0,0,0,0,0,0,0,0,0,0,0,0,0,0,0,0,0,0,0,0,0,0,0,0,0,0,0,0,0,0,0,0,0,0,0,0,0,0,0,0,0,0,0,0,0,0,0,0,0,0,0,0,0,0,13,0.3250316,0,71.94877,1.257116,0.03110057,9.364959,2.313767,1,18.80205
140.013,51.57381,11.69381,12.22092,-12.89378,-6.535187,5.951736,61,62,1.548849,13.08145,51.57381,0.3380842,378.8896,8.735511,-0.9013263,0.4246196,-0.5816442,4.569079,-37.80168,-40.59013,-27.10419,7.225128,0,1.32,2697.5,27,23,0,14.90196,14.90196,1.025982,44.78139,0.35,35.2535,257.3321,345.9,14.08892,5.413817,705,70,4170,0.97,15.9903,3.859375,15.9903,-0.00390625,0,0,0,0,0,0,0,0,0,0,0,0,12.96,0,0,0,0,0,0,0,0,0,77,46,0,0,0,0,0,0,0,0,0,0,0,0,0,0,0,0,0,0,0,0,0,0,0,0,0,0,0,0,0,0,0,0,0,0,0,0,0,0,0,0,0,0,0,0,0,0,0,0,0,0,0,0,0,0,0,13,0.4267069,0,231.8593,1.313805,0.03321062,9.568833,2.342824,1,18.80205
141.013,51.57381,11.69381,12.22092,12.89404,-2.132675,18.54076,61,62,1.548849,13.08145,51.57381,0.3380842,378.8896,8.735511,-0.8131797,0.6546251,0.7702143,-0.2200121,-42.07577,-31.88454,-31.79013,1.586853,0,1.32,2697.5,27,23,0,14.90196,14.90196,1.025982,44.78139,0.35,35.2535,257.3321,345.9,14.08892,5.413817,705,70,4170,0.97,15.9903,3.859375,15.9903,-0.00390625,0,0,0,0,0,0,0,0,0,0,0,0,12.96,0,0,0,0,0,0,0,0,0,77,46,0,0,0,0,0,0,0,0,0,0,0,0,0,0,0,0,0,0,0,0,0,0,0,0,0,0,0,0,0,0,0,0,0,0,0,0,0,0,0,0,0,0,0,0,0,0,0,0,0,0,0,0,0,0,0,13,0.4267069,0,231.8593,1.313805,0.03321062,9.568833,2.342824,1,18.80205
142.013,44.11736,0,12.22092,8.795837,11.39264,-6.907715,61,62,-0.4458854,0,51.57381,0.3380842,0,0,-1.108068,-0.2632762,-0.5119066,-4.991876,-36.86164,-27.91826,-29.49849,-6.980118,0,1.06,1810,23,23,0,27.45098,27.05882,0.4468642,24.12941,0.09,0,250.7576,345.9,0,5.411597,705,70,4170,0.97,2.16672,2.003906,1.862208,-0.00390625,0,0,0,0,0,0,0,0,0,0,0,0,12.96,0,0,0,0,0,0,0,0,0,77,46,0,0,0,0,0,0,0,0,0,0,0,0,0,0,0,0,0,0,0,0,0,0,0,0,0,0,0,0,0,0,0,0,0,0,0,0,0,0,0,0,0,0,0,0,0,0,0,0,0,0,0,0,0,0,0,13,0.2358546,0,31.41744,1.348251,0.03321062,9.324363,2.378988,1,18.80205
143.015,44.11736,0,12.22092,19.81609,23.48843,21.86058,61,62,-0.4458854,0,51.57381,0.3380842,0,0,-0.2564206,0.1738206,-0.2591683,-2.891963,-38.05123,8.98027,1.531638,-27.19,0,1.06,1810,23,23,0,27.45098,27.05882,0.4468642,24.12941,0.09,0,250.7576,345.9,0,5.411597,705,70,4170,0.97,2.16672,2.003906,1.862208,-0.00390625,0,0,0,0,0,0,0,0,0,0,0,0,12.96,0,0,0,0,0,0,0,0,0,77,46,0,0,0,0,0,0,0,0,0,0,0,0,0,0,0,0,0,0,0,0,0,0,0,0,0,0,0,0,0,0,0,0,0,0,0,0,0,0,0,0,0,0,0,0,0,0,0,0,0,0,0,0,0,0,0,13,0.2358546,0,31.41744,1.348251,0.03321062,9.324363,2.378988,1,18.80205
144.014,41.63187,0,12.22092,1.886795,-57.38779,8.231476,61,62,-1.200292,0,51.57381,0.3380842,0,0,0.7921923,0.747542,-0.9035026,2.424706,-26.31664,7.214748,-6.374759,-23.06241,7.45098,1.09,1446.5,23,23,0,14.90196,14.90196,0.664469,20.09712,0.12,0,243.1777,345.9,0,5.40889,705,70,4170,0.97,9.116816,3.402344,2.11548,-0.00390625,0,0,0,0,0,0,0,0,0,0,0,0,12.96,0,0,0,0,0,0,0,0,0,77,46,0,0,0,0,0,0,0,0,0,0,0,0,0,0,0,0,0,0,0,0,0,0,0,0,0,0,0,0,0,0,0,0,0,0,0,0,0,0,0,0,0,0,0,0,0,0,0,0,0,0,0,0,0,0,0,13,0.1714841,0,132.1938,1.390276,0.03321062,9.042506,2.410131,1,18.80205
145.014,41.63187,0,12.22092,-2.498398,2.461624,-11.95222,61,62,-1.200292,0,51.57381,0.3380842,0,0,0.4806547,0.9446557,1.027081,5.781445,-30.09969,3.930077,-4.060191,-19.65753,7.45098,1.09,1446.5,23,23,0,14.90196,14.90196,0.664469,20.09712,0.12,0,243.1777,345.9,0,5.40889,705,70,4170,0.97,9.116816,3.402344,2.11548,-0.00390625,0,0,0,0,0,0,0,0,0,0,0,0,12.96,0,0,0,0,0,0,0,0,0,77,46,0,0,0,0,0,0,0,0,0,0,0,0,0,0,0,0,0,0,0,0,0,0,0,0,0,0,0,0,0,0,0,0,0,0,0,0,0,0,0,0,0,0,0,0,0,0,0,0,0,0,0,0,0,0,0,13,0.1714841,0,132.1938,1.390276,0.03321062,9.042506,2.410131,1,18.80205
146.014,40.38913,0.2664984,12.22128,-28.72578,-21.4726,12.85626,61,62,-0.4015347,0.7225376,51.57381,0.338444,11.02595,0.1990796,-0.1252177,0.5050242,3.294598,3.074492,-33.86689,2.412968,-7.65121,-17.00929,51.76471,1.03,1113,23,23,0,24.31373,24.31373,0.6627716,14.61239,0.06,0.8034164,237.9171,345.8,0.4099973,5.406973,705,70,4170,0.97,1.725568,1.53125,1.769488,-0.00390625,0,0,0,0,0,0,0,0,0,0,0,0,12.96,0,0,0,0,0,0,0,0,0,77,46,0,0,0,0,0,0,0,0,0,0,0,0,0,0,0,0,0,0,0,0,0,0,0,0,0,0,0,0,0,0,0,0,0,0,0,0,0,0,0,0,0,0,0,0,0,0,0,0,0,0,0,0,0,0,0,13.1,0.1244714,0,25.02074,1.422529,0.03324597,8.846892,2.440277,1,18.80205
147.014,40.38913,0.2664984,12.22128,-27.81808,13.53107,1.157959,61,62,-0.4015347,0.7225376,51.57381,0.338444,11.02595,0.1990796,-0.6335791,-0.9704065,1.263939,-1.827442,-37.98199,1.51923,-5.977578,-20.01884,51.76471,1.03,1113,23,23,0,24.31373,24.31373,0.6627716,14.61239,0.06,0.8034164,237.9171,345.9,0.4099973,5.406973,705,70,4170,0.97,1.725568,1.53125,1.769488,-0.00390625,0,0,0,0,0,0,0,0,0,0,0,0,12.96,0,0,0,0,0,0,0,0,0,77,46,0,0,0,0,0,0,0,0,0,0,0,0,0,0,0,0,0,0,0,0,0,0,0,0,0,0,0,0,0,0,0,0,0,0,0,0,0,0,0,0,0,0,0,0,0,0,0,0,0,0,0,0,0,0,0,13.1,0.1244714,0,25.02074,1.422529,0.03324597,8.846892,2.440277,1,18.80205
148.015,40.38913,0.2664984,12.22128,108.259,70.04257,5.614609,61,62,-0.4015347,0.7225376,51.57381,0.338444,11.02595,0.1990796,0.1107421,0.9454661,-4.280971,-8.329872,-31.18781,5.796005,-10.21919,-26.54503,51.76471,1.03,1113,23,23,0,24.31373,24.31373,0.6627716,14.61239,0.06,0.8034164,237.9171,346,0.4099973,5.406973,705,70,4170,0.97,1.725568,1.53125,1.769488,-0.00390625,0,0,0,0,0,0,0,0,0,0,0,0,12.96,0,0,0,0,0,0,0,0,0,77,46,0,0,0,0,0,0,0,0,0,0,0,0,0,0,0,0,0,0,0,0,0,0,0,0,0,0,0,0,0,0,0,0,0,0,0,0,0,0,0,0,0,0,0,0,0,0,0,0,0,0,0,0,0,0,0,13.1,0.1244714,0,25.02074,1.422529,0.03324597,8.846892,2.440277,1,18.80205
149.015,40.38913,0.2664984,12.22128,2.197891,22.12138,-8.018478,61,62,-0.4015347,0.7225376,51.57381,0.338444,11.02595,0.1990796,0.3916787,-1.648061,-0.637048,-3.542572,-37.77373,0.1469421,-7.615781,-18.30083,51.76471,1.03,1113,23,23,0,24.31373,24.31373,0.6627716,14.61239,0.06,0.8034164,237.9171,346.1,0.4099973,5.406973,705,70,4170,0.97,1.725568,1.53125,1.769488,-0.00390625,0,0,0,0,0,0,0,0,0,0,0,0,12.96,0,0,0,0,0,0,0,0,0,77,46,0,0,0,0,0,0,0,0,0,0,0,0,0,0,0,0,0,0,0,0,0,0,0,0,0,0,0,0,0,0,0,0,0,0,0,0,0,0,0,0,0,0,0,0,0,0,0,0,0,0,0,0,0,0,0,13.1,0.1244714,0,25.02074,1.422529,0.03324597,8.846892,2.440277,1,18.80205
150.015,40.38913,0.2664984,12.22128,-12.1989,-6.226471,-2.74585,61,62,-0.4015347,0.7225376,51.57381,0.338444,11.02595,0.1990796,-0.558474,1.060019,-0.01398658,-3.833416,-36.65623,0.3093987,-9.740987,-17.4151,51.76471,1.03,1113,23,23,0,24.31373,24.31373,0.6627716,14.61239,0.06,0.8034164,237.9171,346.1,0.4099973,5.406973,705,70,4170,0.97,1.725568,1.53125,1.769488,-0.00390625,0,0,0,0,0,0,0,0,0,0,0,0,12.96,0,0,0,0,0,0,0,0,0,77,46,0,0,0,0,0,0,0,0,0,0,0,0,0,0,0,0,0,0,0,0,0,0,0,0,0,0,0,0,0,0,0,0,0,0,0,0,0,0,0,0,0,0,0,0,0,0,0,0,0,0,0,0,0,0,0,13.1,0.1244714,0,25.02074,1.422529,0.03324597,8.846892,2.440277,1,18.80205
151.015,40.38913,0.2664984,12.22128,3.604645,-4.544174,-6.820633,61,62,-0.4015347,0.7225376,51.57381,0.338444,11.02595,0.1990796,0.4244057,0.04726101,-1.070327,-4.481896,-33.54546,2.30624,-10.3276,-18.3235,51.76471,1.03,1113,23,23,0,24.31373,24.31373,0.6627716,14.61239,0.06,0.8034164,237.9171,346.1,0.4099973,5.406973,705,70,4170,0.97,1.725568,1.53125,1.769488,-0.00390625,0,0,0,0,0,0,0,0,0,0,0,0,12.96,0,0,0,0,0,0,0,0,0,77,46,0,0,0,0,0,0,0,0,0,0,0,0,0,0,0,0,0,0,0,0,0,0,0,0,0,0,0,0,0,0,0,0,0,0,0,0,0,0,0,0,0,0,0,0,0,0,0,0,0,0,0,0,0,0,0,13.1,0.1244714,0,25.02074,1.422529,0.03324597,8.846892,2.440277,1,18.80205
152.015,40.38913,0.2664984,12.22128,-14.24133,13.0637,0.1232147,61,62,-0.4015347,0.7225376,51.57381,0.338444,11.02595,0.1990796,0.1366807,0.5774001,-0.1193125,-1.638376,-43.33445,-2.383406,-6.929307,-11.53946,51.76471,1.03,1113,23,23,0,24.31373,24.31373,0.6627716,14.61239,0.06,0.8034164,237.9171,346.1,0.4099973,5.406973,705,70,4170,0.97,1.725568,1.53125,1.769488,-0.00390625,0,0,0,0,0,0,0,0,0,0,0,0,12.96,0,0,0,0,0,0,0,0,0,77,46,0,0,0,0,0,0,0,0,0,0,0,0,0,0,0,0,0,0,0,0,0,0,0,0,0,0,0,0,0,0,0,0,0,0,0,0,0,0,0,0,0,0,0,0,0,0,0,0,0,0,0,0,0,0,0,13.1,0.1244714,0,25.02074,1.422529,0.03324597,8.846892,2.440277,1,18.80205
153.015,40.38913,0.2664984,12.22128,-20.02864,-20.59779,-5.261398,61,62,-0.4015347,0.7225376,51.57381,0.338444,11.02595,0.1990796,-0.3136035,0.1364553,-0.8604676,-3.829703,-42.9575,-1.17482,-5.531457,-16.85104,51.76471,1.03,1113,23,23,0,24.31373,24.31373,0.6627716,14.61239,0.06,0.8034164,237.9171,346.1,0.4099973,5.406973,705,70,4170,0.97,1.725568,1.53125,1.769488,-0.00390625,0,0,0,0,0,0,0,0,0,0,0,0,12.96,0,0,0,0,0,0,0,0,0,77,46,0,0,0,0,0,0,0,0,0,0,0,0,0,0,0,0,0,0,0,0,0,0,0,0,0,0,0,0,0,0,0,0,0,0,0,0,0,0,0,0,0,0,0,0,0,0,0,0,0,0,0,0,0,0,0,13.1,0.1244714,0,25.02074,1.422529,0.03324597,8.846892,2.440277,1,18.80205
154.015,40.38913,0.2664984,12.22128,8.054672,27.16859,-4.129288,61,62,-0.4015347,0.7225376,51.57381,0.338444,11.02595,0.1990796,0.07357506,-0.1073512,1.51504,5.424603,-51.37777,-6.139479,-5.205979,-3.103073,51.76471,1.03,1113,23,23,0,24.31373,24.31373,0.6627716,14.61239,0.06,0.8034164,237.9171,346.3,0.4099973,5.406973,705,70,4170,0.97,1.725568,1.53125,1.769488,-0.00390625,0,0,0,0,0,0,0,0,0,0,0,0,12.96,0,0,0,0,0,0,0,0,0,77,46,0,0,0,0,0,0,0,0,0,0,0,0,0,0,0,0,0,0,0,0,0,0,0,0,0,0,0,0,0,0,0,0,0,0,0,0,0,0,0,0,0,0,0,0,0,0,0,0,0,0,0,0,0,0,0,13.1,0.1244714,0,25.02074,1.422529,0.03324597,8.846892,2.440277,1,18.80205
155.015,40.38913,0.2664984,12.22128,58.10055,49.85644,0.4042816,61,62,-0.4015347,0.7225376,51.57381,0.338444,11.02595,0.1990796,0.4401661,0.4163927,-2.058169,3.823654,-39.2844,-4.809097,-7.305881,-9.726532,51.76471,1.03,1113,23,23,0,24.31373,24.31373,0.6627716,14.61239,0.06,0.8034164,237.9171,346.3,0.4099973,5.406973,705,70,4170,0.97,1.725568,1.53125,1.769488,-0.00390625,0,0,0,0,0,0,0,0,0,0,0,0,12.96,0,0,0,0,0,0,0,0,0,77,46,0,0,0,0,0,0,0,0,0,0,0,0,0,0,0,0,0,0,0,0,0,0,0,0,0,0,0,0,0,0,0,0,0,0,0,0,0,0,0,0,0,0,0,0,0,0,0,0,0,0,0,0,0,0,0,13.1,0.1244714,0,25.02074,1.422529,0.03324597,8.846892,2.440277,1,18.80205
156.015,40.38913,0.2664984,12.22128,-2.427063,-0.9753724,-1.440445,61,62,-0.4015347,0.7225376,51.57381,0.338444,11.02595,0.1990796,-0.1149149,0.255173,0.7792736,-0.3887972,-41.95608,-14.00876,-20.57304,-2.595596,51.76471,1.03,1113,23,23,0,24.31373,24.31373,0.6627716,14.61239,0.06,0.8034164,237.9171,346.4,0.4099973,5.406973,705,70,4170,0.97,1.725568,1.53125,1.769488,-0.00390625,0,0,0,0,0,0,0,0,0,0,0,0,12.96,0,0,0,0,0,0,0,0,0,77,46,0,0,0,0,0,0,0,0,0,0,0,0,0,0,0,0,0,0,0,0,0,0,0,0,0,0,0,0,0,0,0,0,0,0,0,0,0,0,0,0,0,0,0,0,0,0,0,0,0,0,0,0,0,0,0,13.1,0.1244714,0,25.02074,1.422529,0.03324597,8.846892,2.440277,1,18.80205
157.015,36.6609,0,0,-9.955093,-6.028137,16.99504,67,68,-0.1854663,0.6367256,36.6609,0,189.3106,0,-1.039413,-2.320903,-1.198157,6.464756,-35.53152,-22.12195,10.04491,-1.960526,77.25491,1.14,1263,28,23,0,34.90196,35.68628,0,18.54039,0.14,0,0,349.1,7.039472,5.406973,742,70,4171,0.97,1.22976,0.6914063,1.314184,-0.00390625,0,0,0,0,0,0,0,0,0,0,0,0,12.98,0,0,0,0,0,0,0,0,0,57,43,0,0,0,0,0,0,0,0,0,0,0,0,0,0,0,0,0,0,0,0,0,0,0,0,0,0,0,0,0,0,0,0,0,0,0,0,0,0,0,0,0,0,0,0,0,0,0,0,0,0,0,0,0,0,0,13,0.105253,0,17.83152,0,0,0,0,0,0
158.015,36.6609,0,0,-1.187759,-9.62352,-3.632568,67,68,-0.1854663,0.6367256,36.6609,0,189.3106,0,-0.1854906,0.3116227,-0.8657159,0.8104941,-35.79523,-16.71093,-5.366096,-7.50351,77.25491,1.14,1263,28,23,0,34.90196,35.68628,0,18.54039,0.14,0,0,349.1,7.039472,5.406973,742,70,4171,0.97,1.22976,0.6914063,1.314184,-0.00390625,0,0,0,0,0,0,0,0,0,0,0,0,12.98,0,0,0,0,0,0,0,0,0,57,43,0,0,0,0,0,0,0,0,0,0,0,0,0,0,0,0,0,0,0,0,0,0,0,0,0,0,0,0,0,0,0,0,0,0,0,0,0,0,0,0,0,0,0,0,0,0,0,0,0,0,0,0,0,0,0,13,0.105253,0,17.83152,0,0,0,0,0,0
159.015,37.90364,3.660858,12.22988,5.694031,6.999054,-7.234039,67,68,0.05810629,8.46837,37.90364,0.008595603,161.3941,2.734734,-0.2305478,0.2477925,0.1979309,-0.2204008,-35.36354,-16.18916,-6.475509,-7.179092,82.35294,1.19,1304.5,28,23,0,36.07843,36.86274,1.022647,19.45847,0.22,11.03644,160.8317,349.2,6.001402,5.407338,742,70,4171,0.97,1.281,0.8007813,1.309792,-0.00390625,0,0,0,0,0,0,0,0,0,0,0,0,12.98,0,0,0,0,0,0,0,0,0,57,43,0,0,0,0,0,0,0,0,0,0,0,0,0,0,0,0,0,0,0,0,0,0,0,0,0,0,0,0,0,0,0,0,0,0,0,0,0,0,0,0,0,0,0,0,0,0,0,0,0,0,0,0,0,0,0,13,0.107368,0,18.5745,0.05344471,0.0008443618,5.980489,0.08486055,0,0
160.015,38.52501,4.056703,12.23516,1.185089,2.481949,-4.55368,67,68,0.1681648,9.298511,38.52501,0.01388402,175.9609,3.030438,0.2603466,0.3429915,-0.4547043,-0.8879548,-33.74505,-14.12262,-6.73808,-8.179718,77.25491,1.2,1316.5,28,23,0,35.29412,35.29412,1.029253,19.80249,0.23,12.2298,166.6581,349.3,6.543065,5.407756,742,70,4171,0.97,1.458144,1.152344,1.448384,-0.00390625,0,0,0,0,0,0,0,0,0,0,0,0,12.98,0,0,0,0,0,0,0,0,0,57,43,0,0,0,0,0,0,0,0,0,0,0,0,0,0,0,0,0,0,0,0,0,0,0,0,0,0,0,0,0,0,0,0,0,0,0,0,0,0,0,0,0,0,0,0,0,0,0,0,0,0,0,0,0,0,0,13,0.1080195,0,21.14309,0.08330841,0.001363853,6.197143,0.1149095,0,0
161.015,38.52501,4.056703,12.23516,5.306763,-3.666183,-1.425858,67,68,0.1681648,9.298511,38.52501,0.01388402,175.9609,3.030438,-0.2550853,-0.4243341,-0.8128508,-0.4661205,-34.05544,-13.65565,-4.832292,-8.64859,77.25491,1.2,1316.5,28,23,0,35.29412,35.29412,1.029253,19.80249,0.23,12.2298,166.6581,349.4,6.543065,5.407756,742,70,4171,0.97,1.458144,1.152344,1.448384,-0.00390625,0,0,0,0,0,0,0,0,0,0,0,0,12.98,0,0,0,0,0,0,0,0,0,57,43,0,0,0,0,0,0,0,0,0,0,0,0,0,0,0,0,0,0,0,0,0,0,0,0,0,0,0,0,0,0,0,0,0,0,0,0,0,0,0,0,0,0,0,0,0,0,0,0,0,0,0,0,0,0,0,13,0.1080195,0,21.14309,0.08330841,0.001363853,6.197143,0.1149095,0,0
162.015,39.14639,3.088778,12.23931,2.863434,3.043365,1.281906,67,68,0.1569706,7.039791,39.14639,0.01802923,131.8502,2.307379,-0.3173491,-0.3000479,0.6318175,-1.792784,-34.92451,-14.86994,-9.745183,-6.734634,79.60784,1.1,1324,28,23,0,31.76471,31.37255,0.8277746,18.2557,0.13,9.311782,156.8773,349.5,4.902819,5.407556,742,70,4171,0.97,1.51036,1.265625,1.555256,-0.00390625,0,0,0,0,0,0,0,0,0,0,0,0,12.98,0,0,0,0,0,0,0,0,0,57,43,0,0,0,0,0,0,0,0,0,0,0,0,0,0,0,0,0,0,0,0,0,0,0,0,0,0,0,0,0,0,0,0,0,0,0,0,0,0,0,0,0,0,0,0,0,0,0,0,0,0,0,0,0,0,0,13,0.1076507,0,21.90022,0.1149257,0.001771045,5.833445,0.1440033,0,0
163.015,39.14639,3.088778,12.23931,-12.44292,22.32396,-3.597366,67,68,0.1569706,7.039791,39.14639,0.01802923,131.8502,2.307379,-1.080293,0.7984471,0.4209214,-2.138604,-34.25888,-13.85819,-11.18753,-5.721146,79.60784,1.1,1324,28,23,0,31.76471,31.37255,0.8277746,18.2557,0.13,9.311782,156.8773,349.5,4.902819,5.407556,742,70,4171,0.97,1.51036,1.265625,1.555256,-0.00390625,0,0,0,0,0,0,0,0,0,0,0,0,12.98,0,0,0,0,0,0,0,0,0,57,43,0,0,0,0,0,0,0,0,0,0,0,0,0,0,0,0,0,0,0,0,0,0,0,0,0,0,0,0,0,0,0,0,0,0,0,0,0,0,0,0,0,0,0,0,0,0,0,0,0,0,0,0,0,0,0,13,0.1076507,0,21.90022,0.1149257,0.001771045,5.833445,0.1440033,0,0
164.015,39.14639,2.574709,12.24266,-1.437149,-2.930496,2.625168,67,68,0.07687419,5.90158,39.14639,0.02137993,109.9062,1.923359,0.318588,-0.02363982,0.1497395,-2.75524,-34.05717,-12.10219,-9.455192,-5.161377,56.47059,1.03,1316.5,26,23,0,27.45098,27.84314,0.6658196,16.99714,0.06,7.76201,147.0405,349.6,4.086836,5.407078,742,70,4171,0.97,1.652856,1.449219,1.694824,-0.00390625,0,0,0,0,0,0,0,0,0,0,0,0,12.98,0,0,0,0,0,0,0,0,0,57,43,0,0,0,0,0,0,0,0,0,0,0,0,0,0,0,0,0,0,0,0,0,0,0,0,0,0,0,0,0,0,0,0,0,0,0,0,0,0,0,0,0,0,0,0,0,0,0,0,0,0,0,0,0,0,0,13.1,0.08162583,0,23.96641,0.1454016,0.00210019,5.467667,0.1789622,0,0
165.015,39.14639,2.574709,12.24266,5.074829,2.061646,-0.2019653,67,68,0.07687419,5.90158,39.14639,0.02137993,109.9062,1.923359,-0.2164451,-0.1346697,-0.4464512,-4.828465,-34.32401,-12.18698,-14.12936,-5.851639,56.47059,1.03,1316.5,26,23,0,27.45098,27.84314,0.6658196,16.99714,0.06,7.76201,147.0405,349.6,4.086836,5.407078,742,70,4171,0.97,1.652856,1.449219,1.694824,-0.00390625,0,0,0,0,0,0,0,0,0,0,0,0,12.98,0,0,0,0,0,0,0,0,0,57,43,0,0,0,0,0,0,0,0,0,0,0,0,0,0,0,0,0,0,0,0,0,0,0,0,0,0,0,0,0,0,0,0,0,0,0,0,0,0,0,0,0,0,0,0,0,0,0,0,0,0,0,0,0,0,0,13.1,0.08162583,0,23.96641,0.1454016,0.00210019,5.467667,0.1789622,0,0
166.015,39.14639,1.927218,12.24567,3.929459,0.4264374,-8.883591,67,68,-4.718448E-16,4.441057,39.14639,0.02439354,82.26686,1.43967,0.1297336,-0.2350613,-0.3559069,-4.308789,-35.10677,-13.29382,-10.57741,-8.072128,57.2549,1.02,1309.5,26,23,0,26.66667,26.66667,0.7018852,16.85455,0.05,5.81001,133.9818,349.6,3.059074,5.406055,742,70,4171,0.97,1.52744,1.230469,1.586,-0.00390625,0,0,0,0,0,0,0,0,0,0,0,0,12.98,0,0,0,0,0,0,0,0,0,57,43,0,0,0,0,0,0,0,0,0,0,0,0,0,0,0,0,0,0,0,0,0,0,0,0,0,0,0,0,0,0,0,0,0,0,0,0,0,0,0,0,0,0,0,0,0,0,0,0,0,0,0,0,0,0,0,13.1,-0.1264686,0,22.14788,0.1820662,0.002396222,4.98208,0.2080402,0,0
167.015,39.14639,1.927218,12.24567,-12.82668,10.95164,0.5435181,67,68,-4.718448E-16,4.441057,39.14639,0.02439354,82.26686,1.43967,-0.1784833,0.7049103,-0.9700835,-3.80017,-34.1294,-12.32575,-12.47208,-7.039886,57.2549,1.02,1309.5,26,23,0,26.66667,26.66667,0.7018852,16.85455,0.05,5.81001,133.9818,349.7,3.059074,5.406055,742,70,4171,0.97,1.52744,1.230469,1.586,-0.00390625,0,0,0,0,0,0,0,0,0,0,0,0,12.98,0,0,0,0,0,0,0,0,0,57,43,0,0,0,0,0,0,0,0,0,0,0,0,0,0,0,0,0,0,0,0,0,0,0,0,0,0,0,0,0,0,0,0,0,0,0,0,0,0,0,0,0,0,0,0,0,0,0,0,0,0,0,0,0,0,0,13.1,-0.1264686,0,22.14788,0.1820662,0.002396222,4.98208,0.2080402,0,0
168.015,39.14639,2.386342,12.24879,2.204193,-5.714371,4.491867,67,68,-4.718448E-16,5.383936,39.14639,0.02750547,101.8654,1.782645,0.09669237,-0.1894719,-0.177535,-2.993356,-33.55606,-12.98082,-8.426524,-7.327911,69.80392,1.07,1337.5,26,23,0,33.72549,35.68628,0.8617731,18.05881,0.1,7.194137,129.3844,349.8,3.787842,5.40547,742,70,4171,0.97,1.320528,0.8984375,1.380064,-0.00390625,0,0,0,0,0,0,0,0,0,0,0,0,12.98,0,0,0,0,0,0,0,0,0,57,43,0,0,0,0,0,0,0,0,0,0,0,0,0,0,0,0,0,0,0,0,0,0,0,0,0,0,0,0,0,0,0,0,0,0,0,0,0,0,0,0,0,0,0,0,0,0,0,0,0,0,0,0,0,0,0,13,-0.2281439,0,19.14766,0.2125873,0.002701913,4.811128,0.238132,0,0
169.015,39.14639,2.386342,12.24879,-19.67021,7.618607,-23.16187,67,68,-4.718448E-16,5.383936,39.14639,0.02750547,101.8654,1.782645,-1.000765,-0.3371375,-0.3727581,-4.737146,-35.24997,-12.18207,-14.38182,-5.530792,69.80392,1.07,1337.5,26,23,0,33.72549,35.68628,0.8617731,18.05881,0.1,7.194137,129.3844,349.7,3.787842,5.40547,742,70,4171,0.97,1.320528,0.8984375,1.380064,-0.00390625,0,0,0,0,0,0,0,0,0,0,0,0,12.98,0,0,0,0,0,0,0,0,0,57,43,0,0,0,0,0,0,0,0,0,0,0,0,0,0,0,0,0,0,0,0,0,0,0,0,0,0,0,0,0,0,0,0,0,0,0,0,0,0,0,0,0,0,0,0,0,0,0,0,0,0,0,0,0,0,0,13,-0.2281439,0,19.14766,0.2125873,0.002701913,4.811128,0.238132,0,0
170.015,39.76776,3.193367,12.25307,-0.1403046,7.598297,-9.290131,67,68,0.07750114,7.090721,39.76776,0.03179166,134.1848,2.385508,-0.78425,0.5514016,-0.1432636,-5.903091,-34.05132,-10.09251,-16.24371,-6.035675,78.43137,1.16,1359,26,23,0,36.07843,35.68628,0.9260909,19.89248,0.19,9.627086,130.0556,349.8,4.989632,5.405318,742,70,4171,0.97,1.316624,0.8867188,1.384456,-0.00390625,0,0,0,0,0,0,0,0,0,0,0,0,12.98,0,0,0,0,0,0,0,0,0,57,43,0,0,0,0,0,0,0,0,0,0,0,0,0,0,0,0,0,0,0,0,0,0,0,0,0,0,0,0,0,0,0,0,0,0,0,0,0,0,0,0,0,0,0,0,0,0,0,0,0,0,0,0,0,0,0,13,-0.02179133,0,19.09105,0.2444466,0.003122953,4.836088,0.2668619,0,0
171.015,39.76776,3.193367,12.25307,-1.193527,15.60341,-19.87955,67,68,0.07750114,7.090721,39.76776,0.03179166,134.1848,2.385508,-0.3640817,0.3848973,-0.5604264,-5.85373,-33.97882,-9.931757,-14.85139,-6.448669,78.43137,1.16,1359,26,23,0,36.07843,35.68628,0.9260909,19.89248,0.19,9.627086,130.0556,349.7,4.989632,5.405318,742,70,4171,0.97,1.316624,0.8867188,1.384456,-0.00390625,0,0,0,0,0,0,0,0,0,0,0,0,12.98,0,0,0,0,0,0,0,0,0,57,43,0,0,0,0,0,0,0,0,0,0,0,0,0,0,0,0,0,0,0,0,0,0,0,0,0,0,0,0,0,0,0,0,0,0,0,0,0,0,0,0,0,0,0,0,0,0,0,0,0,0,0,0,0,0,0,13,-0.02179133,0,19.09105,0.2444466,0.003122953,4.836088,0.2668619,0,0
172.015,39.76776,3.149589,12.25717,-14.30185,8.693405,7.761474,67,68,0.07750114,7.156767,39.76776,0.0358867,132.3453,2.352806,-1.595108,0.4485698,0.3295591,-6.219187,-34.12783,-9.678852,-16.81584,-6.221771,75.68627,1.12,1328,27,23,0,35.29412,35.29412,0.800061,18.76842,0.15,9.49511,130.2559,349.8,4.92123,5.405133,742,70,4171,0.97,1.300032,0.8398438,1.290272,-0.00390625,0,0,0,0,0,0,0,0,0,0,0,0,12.98,0,0,0,0,0,0,0,0,0,57,43,0,0,0,0,0,0,0,0,0,0,0,0,0,0,0,0,0,0,0,0,0,0,0,0,0,0,0,0,0,0,0,0,0,0,0,0,0,0,0,0,0,0,0,0,0,0,0,0,0,0,0,0,0,0,0,13,0.02741477,0,18.85046,0.2755092,0.003525216,4.843534,0.3020838,0,0
173.015,40.38913,3.074798,12.26201,-4.947006,-0.2279358,7.867737,67,68,0.06629223,8.142604,40.38913,0.04072576,127.2149,2.296935,0.2085042,-0.139455,-0.9527292,-4.911495,-33.74364,-10.2598,-15.95364,-5.340408,78.43137,1.14,1139.5,27,23,0,32.15686,30.98039,0.8310539,16.33734,0.17,9.269635,129.9741,349.9,4.730455,5.404842,742,70,4171,0.97,1.559648,1.320313,1.592832,-0.00390625,0,0,0,0,0,0,0,0,0,0,0,0,12.98,0,0,0,0,0,0,0,0,0,57,43,0,0,0,0,0,0,0,0,0,0,0,0,0,0,0,0,0,0,0,0,0,0,0,0,0,0,0,0,0,0,0,0,0,0,0,0,0,0,0,0,0,0,0,0,0,0,0,0,0,0,0,0,0,0,0,13,0.07177405,0,22.6149,0.3133374,0.004000566,4.833057,0.330804,0,0
174.015,40.38913,3.074798,12.26201,11.52545,-23.35229,20.56017,67,68,0.06629223,8.142604,40.38913,0.04072576,127.2149,2.296935,-0.3741989,-1.121926,0.2396603,-4.281877,-34.54515,-10.98018,-14.58105,-5.627457,78.43137,1.14,1139.5,27,23,0,32.15686,30.98039,0.8310539,16.33734,0.17,9.269635,129.9741,349.9,4.730455,5.404842,742,70,4171,0.97,1.559648,1.320313,1.592832,-0.00390625,0,0,0,0,0,0,0,0,0,0,0,0,12.98,0,0,0,0,0,0,0,0,0,57,43,0,0,0,0,0,0,0,0,0,0,0,0,0,0,0,0,0,0,0,0,0,0,0,0,0,0,0,0,0,0,0,0,0,0,0,0,0,0,0,0,0,0,0,0,0,0,0,0,0,0,0,0,0,0,0,13,0.07177405,0,22.6149,0.3133374,0.004000566,4.833057,0.330804,0,0
175.015,40.38913,3.074798,12.26201,-1.502548,9.007935,-8.575104,67,68,0.06629223,8.142604,40.38913,0.04072576,127.2149,2.296935,0.5270545,0.8734938,0.1367324,-4.217823,-34.86426,-11.45603,-13.61148,-5.885605,78.43137,1.14,1139.5,27,23,0,32.15686,30.98039,0.8310539,16.33734,0.17,9.269635,129.9741,350,4.730455,5.404842,742,70,4171,0.97,1.559648,1.320313,1.592832,-0.00390625,0,0,0,0,0,0,0,0,0,0,0,0,12.98,0,0,0,0,0,0,0,0,0,57,43,0,0,0,0,0,0,0,0,0,0,0,0,0,0,0,0,0,0,0,0,0,0,0,0,0,0,0,0,0,0,0,0,0,0,0,0,0,0,0,0,0,0,0,0,0,0,0,0,0,0,0,0,0,0,0,13,0.07177405,0,22.6149,0.3133374,0.004000566,4.833057,0.330804,0,0
176.015,40.38913,2.658327,12.26545,-6.771484,-2.867462,6.333801,67,68,0.06629223,7.16548,40.38913,0.04416681,109.984,1.985823,-0.3273441,-0.4669666,0.5867236,-2.440767,-35.5867,-12.76319,-12.78986,-5.250732,62.35294,1.07,1119.5,27,23,0,29.01961,28.62745,0.8080384,15.06503,0.1,8.014094,128.0881,350.1,4.089731,5.404342,761,70,4171,0.97,1.577704,1.328125,1.501088,-0.00390625,0,0,0,0,0,0,0,0,0,0,0,0,12.98,0,0,0,0,0,0,0,0,0,60,46,0,0,0,0,0,0,0,0,0,0,0,0,0,0,0,0,0,0,0,0,0,0,0,0,0,0,0,0,0,0,0,0,0,0,0,0,0,0,0,0,0,0,0,0,0,0,0,0,0,0,0,0,0,0,0,13,0.07776648,0,22.87671,0.344816,0.004338586,4.762925,0.3686031,0,0
177.015,40.38913,2.412673,12.2695,4.990479,5.339035,-4.584076,67,68,-4.718448E-16,6.474406,40.38913,0.04821789,99.82048,1.802314,0.2734508,0.1368094,-0.2025036,-2.987959,-35.17876,-11.96237,-13.28507,-5.618469,59.21569,1.09,1124.5,27,23,0,24.70588,23.52941,0.9389557,15.41517,0.12,7.273517,125.1081,350.2,3.711801,5.403528,761,70,4171,0.97,1.576728,1.34375,1.788032,-0.00390625,0,0,0,0,0,0,0,0,0,0,0,0,12.98,0,0,0,0,0,0,0,0,0,60,46,0,0,0,0,0,0,0,0,0,0,0,0,0,0,0,0,0,0,0,0,0,0,0,0,0,0,0,0,0,0,0,0,0,0,0,0,0,0,0,0,0,0,0,0,0,0,0,0,0,0,0,0,0,0,0,13,0.0601528,0,22.86256,0.3854099,0.004736532,4.652115,0.3976729,0,0
178.015,40.38913,2.412673,12.2695,-8.65152,5.140457,0.9976806,67,68,-4.718448E-16,6.474406,40.38913,0.04821789,99.82048,1.802314,-0.9494964,-0.2547746,-0.1135343,-3.877145,-35.49665,-11.65799,-14.4961,-5.470367,59.21569,1.09,1124.5,27,23,0,24.70588,23.52941,0.9389557,15.41517,0.12,7.273517,125.1081,350.2,3.711801,5.403528,761,70,4171,0.97,1.576728,1.34375,1.788032,-0.00390625,0,0,0,0,0,0,0,0,0,0,0,0,12.98,0,0,0,0,0,0,0,0,0,60,46,0,0,0,0,0,0,0,0,0,0,0,0,0,0,0,0,0,0,0,0,0,0,0,0,0,0,0,0,0,0,0,0,0,0,0,0,0,0,0,0,0,0,0,0,0,0,0,0,0,0,0,0,0,0,0,13,0.0601528,0,22.86256,0.3854099,0.004736532,4.652115,0.3976729,0,0
179.015,40.38913,1.525209,12.27148,-4.987534,9.278671,-4.574188,67,68,-4.718448E-16,4.207006,40.38913,0.05020156,63.1031,1.139362,0.1680318,-0.1149146,-0.6957832,-2.576947,-35.19454,-13.07178,-12.77705,-4.947067,43.52941,1.01,1094,23,23,0,21.56863,21.56863,0.6222444,13.89636,0.04,4.598069,120.4295,350.2,2.346474,5.40239,761,70,4171,0.97,1.843664,1.675781,1.861232,-0.00390625,0,0,0,0,0,0,0,0,0,0,0,0,12.98,0,0,0,0,0,0,0,0,0,60,46,0,0,0,0,0,0,0,0,0,0,0,0,0,0,0,0,0,0,0,0,0,0,0,0,0,0,0,0,0,0,0,0,0,0,0,0,0,0,0,0,0,0,0,0,0,0,0,0,0,0,0,0,0,0,0,13,0.04413351,0,26.73313,0.4168544,0.004931391,4.478143,0.4324254,0,0
180.015,40.38913,1.525209,12.27148,6.973297,-4.574295,5.955734,67,68,-4.718448E-16,4.207006,40.38913,0.05020156,63.1031,1.139362,0.5044761,-0.4486103,-0.1956715,-4.560176,-36.62297,-11.56439,-16.44008,-4.742325,43.52941,1.01,1094,23,23,0,21.56863,21.56863,0.6222444,13.89636,0.04,4.598069,120.4295,350.2,2.346474,5.40239,761,70,4171,0.97,1.843664,1.675781,1.861232,-0.00390625,0,0,0,0,0,0,0,0,0,0,0,0,12.98,0,0,0,0,0,0,0,0,0,60,46,0,0,0,0,0,0,0,0,0,0,0,0,0,0,0,0,0,0,0,0,0,0,0,0,0,0,0,0,0,0,0,0,0,0,0,0,0,0,0,0,0,0,0,0,0,0,0,0,0,0,0,0,0,0,0,13,0.04413351,0,26.73313,0.4168544,0.004931391,4.478143,0.4324254,0,0
181.015,39.76776,1.365801,12.27363,-8.098587,6.988693,2.441132,67,68,-0.06612725,3.277484,40.38913,0.05234621,57.39079,1.020281,-0.3998059,-0.3165453,0.5573396,-2.068325,-38.6288,-16.0961,-12.2129,-3.652939,47.45098,1.04,1257.5,23,23,0,24.70588,24.70588,0.7687562,16.66979,0.07,4.1175,115.2509,350.3,2.134063,5.400946,761,70,4171,0.97,1.784128,1.613281,1.924184,-0.00390625,0,0,0,0,0,0,0,0,0,0,0,0,12.98,0,0,0,0,0,0,0,0,0,60,46,0,0,0,0,0,0,0,0,0,0,0,0,0,0,0,0,0,0,0,0,0,0,0,0,0,0,0,0,0,0,0,0,0,0,0,0,0,0,0,0,0,0,0,0,0,0,0,0,0,0,0,0,0,0,0,13,0.01553322,0,25.86986,0.4541935,0.005142063,4.285577,0.4612437,0,0
182.015,39.76776,1.365801,12.27363,-7.674515,5.172806,-1.720795,67,68,-0.06612725,3.277484,40.38913,0.05234621,57.39079,1.020281,0.2517984,-0.05982376,-0.2569816,-2.020326,-37.9586,-15.97277,-10.05076,-7.137268,47.45098,1.04,1257.5,23,23,0,24.70588,24.70588,0.7687562,16.66979,0.07,4.1175,115.2509,350.4,2.134063,5.400946,761,70,4171,0.97,1.784128,1.613281,1.924184,-0.00390625,0,0,0,0,0,0,0,0,0,0,0,0,12.98,0,0,0,0,0,0,0,0,0,60,46,0,0,0,0,0,0,0,0,0,0,0,0,0,0,0,0,0,0,0,0,0,0,0,0,0,0,0,0,0,0,0,0,0,0,0,0,0,0,0,0,0,0,0,0,0,0,0,0,0,0,0,0,0,0,0,13,0.01553322,0,25.86986,0.4541935,0.005142063,4.285577,0.4612437,0,0
183.015,39.14639,1.561067,12.27566,10.26582,10.7464,-13.85486,67,68,-0.1461571,3.587714,40.38913,0.05438339,66.63702,1.166148,-0.2200485,1.019695,0.427259,-3.378581,-37.94413,-15.44729,-10.81553,-2.475739,48.62745,1,1313,23,23,0,31.76471,31.37255,0.7012445,16.73607,0.03,4.70617,112.2316,350.5,2.477882,5.399902,761,70,4171,0.97,1.521584,1.238281,1.507432,-0.00390625,0,0,0,0,0,0,0,0,0,0,0,0,12.98,0,0,0,0,0,0,0,0,0,60,46,0,0,0,0,0,0,0,0,0,0,0,0,0,0,0,0,0,0,0,0,0,0,0,0,0,0,0,0,0,0,0,0,0,0,0,0,0,0,0,0,0,0,0,0,0,0,0,0,0,0,0,0,0,0,0,13,-0.0004727403,0,22.06297,0.4845641,0.00534218,4.173305,0.4948465,0,0
184.015,39.14639,1.561067,12.27566,-2.502075,10.92609,-2.416,67,68,-0.1461571,3.587714,40.38913,0.05438339,66.63702,1.166148,-0.3752675,0.4955292,-0.9371276,-3.630234,-35.52454,-12.41035,-13.74353,-6.275604,48.62745,1,1313,23,23,0,31.76471,31.37255,0.7012445,16.73607,0.03,4.70617,112.2316,350.5,2.477882,5.399902,761,70,4171,0.97,1.521584,1.238281,1.507432,-0.00390625,0,0,0,0,0,0,0,0,0,0,0,0,12.98,0,0,0,0,0,0,0,0,0,60,46,0,0,0,0,0,0,0,0,0,0,0,0,0,0,0,0,0,0,0,0,0,0,0,0,0,0,0,0,0,0,0,0,0,0,0,0,0,0,0,0,0,0,0,0,0,0,0,0,0,0,0,0,0,0,0,13,-0.0004727403,0,22.06297,0.4845641,0.00534218,4.173305,0.4948465,0,0
185.015,39.14639,1.991174,12.27864,11.28127,-0.4264832,-1.640701,67,68,-0.08002982,4.53305,40.38913,0.05736181,84.99694,1.487446,0.6504571,-0.4604231,0.03287456,-2.408899,-37.88848,-14.09405,-14.4195,-4.162323,76.86275,1.1,1325.5,23,23,0,14.90196,43.92157,0.8359189,18.58494,0.13,6.00282,110.3657,350.5,3.160591,5.398965,761,70,4171,0.97,1.145336,0.4257813,1.356152,-0.00390625,0,0,0,0,0,0,0,0,0,0,0,0,12.98,0,0,0,0,0,0,0,0,0,60,46,0,0,0,0,0,0,0,0,0,0,0,0,0,0,0,0,0,0,0,0,0,0,0,0,0,0,0,0,0,0,0,0,0,0,0,0,0,0,0,0,0,0,0,0,0,0,0,0,0,0,0,0,0,0,0,13,-0.0004727403,0,16.60737,0.5197433,0.005634756,4.103921,0.5238949,0,0
186.015,39.14639,1.991174,12.27864,-14.93371,22.89017,-8.578598,67,68,-0.08002982,4.53305,40.38913,0.05736181,84.99694,1.487446,0.5925876,0.1923376,0.2333717,-2.936081,-37.52134,-13.53629,-12.83961,-6.568954,76.86275,1.1,1325.5,23,23,0,14.90196,43.92157,0.8359189,18.58494,0.13,6.00282,110.3657,350.5,3.160591,5.398965,761,70,4171,0.97,1.145336,0.4257813,1.356152,-0.00390625,0,0,0,0,0,0,0,0,0,0,0,0,12.98,0,0,0,0,0,0,0,0,0,60,46,0,0,0,0,0,0,0,0,0,0,0,0,0,0,0,0,0,0,0,0,0,0,0,0,0,0,0,0,0,0,0,0,0,0,0,0,0,0,0,0,0,0,0,0,0,0,0,0,0,0,0,0,0,0,0,13,-0.0004727403,0,16.60737,0.5197433,0.005634756,4.103921,0.5238949,0,0
187.015,39.76776,11.1338,12.29314,1.236603,-7.083649,-24.0479,67,68,0.07986818,12.843,40.38913,0.07186275,467.8407,8.317168,-0.5431207,-0.03398575,0.1025599,-2.358453,-38.48461,-18.02654,-8.724505,-11.20207,99.60784,2,2616,34,23,0,79.21568,78.43137,2.929199,66.68936,1.03,33.56521,130.5033,350.5,17.39655,5.403366,761,70,4171,0.97,1.244888,0.828125,1.165832,-0.00390625,0,0,0,0,0,0,0,0,0,0,0,0,12.98,0,0,0,0,0,0,0,0,0,60,46,0,0,0,0,0,0,0,1,0,0,0,0,0,0,0,0,0,0,0,0,0,0,0,0,0,0,0,0,0,0,0,0,0,0,0,0,0,0,0,0,0,0,0,0,0,0,0,0,0,0,0,0,0,0,0,13,0.01550089,0,18.05088,0.5506585,0.00705921,4.852735,0.5594336,0,0
188.015,39.76776,11.1338,12.29314,-10.94933,4.298447,14.79242,67,68,0.07986818,12.843,40.38913,0.07186275,467.8407,8.317168,-0.4220873,0.08473896,0.1248761,-1.322942,-34.30972,-15.65646,-7.402663,-13.50571,99.60784,2,2616,34,23,0,79.21568,78.43137,2.929199,66.68936,1.03,33.56521,130.5033,350.5,17.39655,5.403366,761,70,4171,0.97,1.244888,0.828125,1.165832,-0.00390625,0,0,0,0,0,0,0,0,0,0,0,0,12.98,0,0,0,0,0,0,0,0,0,60,46,0,0,0,0,0,0,0,1,0,0,0,0,0,0,0,0,0,0,0,0,0,0,0,0,0,0,0,0,0,0,0,0,0,0,0,0,0,0,0,0,0,0,0,0,0,0,0,0,0,0,0,0,0,0,0,13,0.01550089,0,18.05088,0.5506585,0.00705921,4.852735,0.5594336,0,0
189.015,48.46695,34.20681,12.34762,29.27675,-13.3418,0.4363251,67,68,0.993777,31.36503,48.46695,0.1263423,1179.377,25.55317,-0.400275,-1.712746,2.695732,5.854698,-35.23459,-20.4687,0.02408218,-9.391861,100,2.43,3291,34,23,0,74.11765,74.11765,3.649398,98.28432,1.46,103.1237,211.7148,350.6,43.85485,5.424356,761,70,4171,0.97,1.30784,1.035156,1.22,-0.00390625,0,0,0,0,0,0,0,0,0,0,0,0,12.98,0,0,0,0,0,0,0,0,0,60,46,0,0,0,0,0,0,0,1,0,0,0,0,0,0,0,0,0,0,0,0,0,0,0,0,0,0,0,0,0,0,0,0,0,0,0,0,0,0,0,0,0,0,0,0,0,0,0,0,0,0,0,0,0,0,0,13,0.1827824,0,18.96368,0.5967568,0.01241083,7.872567,0.589566,0,0
190.015,48.46695,34.20681,12.34762,2.174347,8.646378,-1.634415,67,68,0.993777,31.36503,48.46695,0.1263423,1179.377,25.55317,0.7394499,-0.5891113,1.12382,6.225762,-35.5887,-27.61768,-2.794415,-0.5832062,100,2.43,3291,34,23,0,74.11765,74.11765,3.649398,98.28432,1.46,103.1237,211.7148,350.7,43.85485,5.424356,761,70,4171,0.97,1.30784,1.035156,1.22,-0.00390625,0,0,0,0,0,0,0,0,0,0,0,0,12.98,0,0,0,0,0,0,0,0,0,60,46,0,0,0,0,0,0,0,1,0,0,0,0,0,0,0,0,0,0,0,0,0,0,0,0,0,0,0,0,0,0,0,0,0,0,0,0,0,0,0,0,0,0,0,0,0,0,0,0,0,0,0,0,0,0,0,13,0.1827824,0,18.96368,0.5967568,0.01241083,7.872567,0.589566,0,0
191.015,57.16615,37.16303,12.39761,3.188629,-5.48027,0.797699,67,68,1.988169,31.10331,57.16615,0.176334,1086.32,27.76152,0.2504321,0.367738,0.7298494,6.496571,-38.79165,-26.81438,-0.5616655,-3.789429,34.5098,1.63,3605.5,34,23,0,14.90196,14.90196,3.13923,72.2276,0.66,112.0359,274.2308,350.8,40.39457,5.443343,761,70,4171,0.97,15.9903,4.179688,15.9903,-0.00390625,0,0,0,0,0,0,0,0,0,0,0,0,12.98,0,0,0,0,0,0,0,0,0,60,46,0,0,0,0,0,0,0,0,0,0,0,0,0,0,0,0,0,0,0,0,0,0,0,0,0,0,0,0,0,0,0,0,0,0,0,0,0,0,0,0,0,0,0,0,0,0,0,0,0,0,0,0,0,0,0,15,0.3976344,0,231.8593,0.6430131,0.01732161,10.19721,0.6194085,0,0
