Time (sec),Vehicle speed (MPH),Fuel rate (l/hr),Total CO2 (kg), Rotation Rate X (deg/s), Rotation Rate Y (deg/s), Rotation Rate Z (deg/s), Engine coolant temperature (°C),Engine coolant temperature 1 (°C),Acceleration (m/s²),Engine Torque (kg•m),Max Speed (MPH),Total Trip CO2 (kg),Instant CO2 rate (g/km),CO2 flow (g/s), Accel X (m/s²), Accel Y (m/s²), Accel Z (m/s²), Roll (deg), Pitch (deg),Magnetometer X (µT), Magnetometer Y (µT), Magnetometer Z (µT),Calculated load value (%), Intake manifold absolute pressure (bar), Engine RPM (RPM), Intake air temperature (°C), Ambient air temperature (°C), Absolute throttle position B (%), Accelerator pedal position D (%), Accelerator pedal position E (%), Intake manifold absolute pressure (bar), Mass air flow rate (g/s), Boost (bar),Engine Power (kW),Average Trip CO2 Rate (g/km),Altitude (m),Instant fuel economy (l/100 km),Total fuel economy (l/100 km), Time since engine start (sec), Number of warm-ups since DTCs cleared, Distance traveled since DTCs cleared (km), Barometric pressure (bar),O2 sensor lambda wide range (current probe)  (Bank 1  Sensor 1),O2 sensor current wide range (Bank 1  Sensor 1) (mA),O2 sensor lambda wide range (current probe)  (Bank 1  Sensor 2),O2 sensor current wide range (Bank 1  Sensor 2) (mA),O2 sensor lambda wide range (current probe)  (Bank 1  Sensor 3),O2 sensor current wide range (Bank 1  Sensor 3) (mA),O2 sensor lambda wide range (current probe)  (Bank 1  Sensor 4),O2 sensor current wide range (Bank 1  Sensor 4) (mA),O2 sensor lambda wide range (current probe)  (Bank 2  Sensor 1),O2 sensor current wide range (Bank 2  Sensor 1) (mA),O2 sensor lambda wide range (current probe)  (Bank 2  Sensor 2),O2 sensor current wide range (Bank 2  Sensor 2) (mA),O2 sensor lambda wide range (current probe)  (Bank 2  Sensor 3),O2 sensor current wide range (Bank 2  Sensor 3) (mA),O2 sensor lambda wide range (current probe)  (Bank 2  Sensor 4),O2 sensor current wide range (Bank 2  Sensor 4) (mA), Control module voltage (V), Absolute throttle position C (%), Mass air flow sensor B (g/s), Relative throttle B position (%), Commanded boost pressure A (bar), Boost pressure sensor A (bar), Commanded boost pressure B (bar), Boost pressure sensor B (bar), Boost pressure A control status, Boost pressure B control status,Charge air cooler temperature bank 1  sensor 1 (°C),Charge air cooler temperature bank 1  sensor 2 (°C), Manifold surface temperature (°C), Intake manifold absolute pressure A (bar), Intake manifold absolute pressure B (bar),Total run time with EI-AECD #11 Timer 1 active (sec),Total run time with EI-AECD #11 Timer 2 active (sec),Total run time with EI-AECD #12 Timer 1 active (sec),Total run time with EI-AECD #12 Timer 2 active (sec), Diesel aftertreatment status,O2 sensor concentration bank 1 sensor 1 (%),O2 sensor concentration bank 1 sensor 2 (%),O2 sensor concentration bank 2 sensor 1 (%),O2 sensor concentration bank 2 sensor 2 (%), Absolute throttle position G (%),Target SCR Catalyst NH3 Storage A (g/L),Actual/Modelled SCR Catalyst NH3 Storage A (g/L),Target SCR Catalyst NH3 Storage B (g/L),Actual/Modelled SCR Catalyst NH3 Storage B (g/L), Hydrocarbon Doser Flow Rate (g/min), Hydrocarbon Doser Injector Duty Cycle (%),O2 sensor concentration bank 1 sensor 3 (%),O2 sensor concentration bank 1 sensor 4 (%),O2 sensor concentration bank 2 sensor 3 (%),O2 sensor concentration bank 2 sensor 4 (%),O2 sensor lambda bank 1 sensor 3,O2 sensor lambda bank 1 sensor 4,O2 sensor lambda bank 2 sensor 3,O2 sensor lambda bank 2 sensor 4, Engine Fuel Rate (g/s), Vehicle Fuel Rate (g/s), Engine Exhaust Flow Rate (g/s),Fuel System A Use Percentage Bank 1 (%),Fuel System A Use Percentage Bank 2 (%), Cylinder Fuel Rate, Transmission Actual Gear Status, Transmission Actual Gear Ratio, Vehicle Odometer Reading (km), Motorcycle ABS Disable Switch State, Maximum Current Vehicle Speed Limit (MPH), Alternative Fuel Tank Pressure (bar), Alternative Fuel Tank Temperature (°C),Crankcase Pressure Sensor (inH2O),Fuel System Status Bank 1,Fuel System Status Bank 2,Short Term Fuel Trim Bank 1 (%),Long Term Fuel Trim Bank 1 (%),Short Term Fuel Trim Bank 2 (%),Long Term Fuel Trim Bank 2 (%),O2 Sensor Concentration Bank 1 Sensor 5 (%),O2 Sensor Concentration Bank 1 Sensor 6 (%),O2 Sensor Concentration Bank 2 Sensor 5 (%),O2 Sensor Concentration Bank 2 Sensor 6 (%),O2 Sensor Lambda Bank 1 Sensor 5,O2 Sensor Lambda Bank 1 Sensor 6,O2 Sensor Lambda Bank 2 Sensor 5,O2 Sensor Lambda Bank 2 Sensor 6, Input voltage read by the scan tool (V), Acceleration (Avg) (m/s²), A/F Commanded, A/F Actual,Trip Distance (km), Trip Fuel (gal),Trip Fuel Economy (l/100 km),Trip Duration (min), Idling Count, Seconds Idling (sec)
0.000,0,0,0,1.171677,13.81749,8.252579,0,0,-0.6277902,0,0,0,0,0,-0.2065116,0.8566473,0.4350352,0.5155713,-32.29651,-21.8507,16.12069,-25.17413,45.4902,0,0,0,0,0,0,0,0,0,0,0,0,336.4482,0,5.611098,0,0,0,0,0,0,0,0,0,0,0,0,0,0,0,0,0,0,0,0,0,0,0,0,0,0,0,0,0,0,0,0,0,0,0,0,0,0,0,0,0,0,0,0,0,0,0,0,0,0,0,0,0,0,0,0,0,0,0,0,0,0,0,0,0,0,0,0,0,0,0,0,0,0,0,0,0,0,0,0,0,0,0,0,0,0,0,0,-0.2453896,0,0,0,0,0,0,1,4E-06
1.000,0,0,0,2.332031,0.622757,4.516983,0,0,-0.6277902,0,0,0,0,0,-0.3262931,0.1558455,0.1099085,-4.131467,-34.99444,-18.16837,18.53013,-23.12048,45.4902,0,0,0,0,0,0,0,0,0,0,0,0,336.3262,0,5.611098,0,0,0,0,0,0,0,0,0,0,0,0,0,0,0,0,0,0,0,0,0,0,0,0,0,0,0,0,0,0,0,0,0,0,0,0,0,0,0,0,0,0,0,0,0,0,0,0,0,0,0,0,0,0,0,0,0,0,0,0,0,0,0,0,0,0,0,0,0,0,0,0,0,0,0,0,0,0,0,0,0,0,0,0,0,0,0,0,-0.2453896,0,0,0,0,0,0,1,4E-06
2.002,0,0,0,-13.0461,12.18016,-1.236984,0,0,-0.6277902,0,0,0,0,0,-0.08464513,-1.171585,-0.6383207,8.360838,-39.94719,-34.19269,19.41111,-24.48032,45.4902,0,0,0,0,0,0,0,0,0,0,0,0,336.5772,0,5.611098,0,0,0,0,0,0,0,0,0,0,0,0,0,0,0,0,0,0,0,0,0,0,0,0,0,0,0,0,0,0,0,0,0,0,0,0,0,0,0,0,0,0,0,0,0,0,0,0,0,0,0,0,0,0,0,0,0,0,0,0,0,0,0,0,0,0,0,0,0,0,0,0,0,0,0,0,0,0,0,0,0,0,0,0,0,0,0,0,-0.2453896,0,0,0,0,0,0,1,4E-06
3.000,2.485485,1.67897,21.88437,-16.70758,5.457825,7.928131,48,49,0.6198964,4.521599,2.485485,0.0009493575,1128.801,1.254224,0.1196611,-0.6527071,-1.989439,7.785282,-34.67594,-39.13759,20.71617,-34.67213,42.7451,0.75,1120.5,25,23,0,23.13725,23.13725,0,10.82141,-0.25,5.061613,953.3805,336.1095,41.97422,5.611303,225,74,4295,0.97,2.917752,2.414063,2.377048,-0.00390625,0,0,0,0,0,0,0,0,0,0,0,0,13.04,0,0,0,0,0,0,0,0,0,30,31,0,0,0,0,0,0,0,3,0,0,0,0,0,0,0,0,0,0,0,0,0,0,0,0,0,0,0,0,0,0,0,0,0,0,0,0,0,0,0,0,0,0,0,0,0,0,0,0,0,0,0,0,0,0,0,13,-0.1056894,0,42.3074,0.0009957802,9.325712E-05,35.45123,0.06067853,1,3.064143
4.000,2.485485,1.67897,21.88437,25.23862,23.7668,12.17714,48,49,0.6198964,4.521599,2.485485,0.0009493575,1128.801,1.254224,0.3054809,-0.2488385,-0.8284945,7.936905,-38.83945,-38.40063,28.98675,-41.6312,42.7451,0.75,1120.5,25,23,0,23.13725,23.13725,0,10.82141,-0.25,5.061613,953.3805,336.1181,41.97422,5.611303,225,74,4295,0.97,2.917752,2.414063,2.377048,-0.00390625,0,0,0,0,0,0,0,0,0,0,0,0,13.04,0,0,0,0,0,0,0,0,0,30,31,0,0,0,0,0,0,0,3,0,0,0,0,0,0,0,0,0,0,0,0,0,0,0,0,0,0,0,0,0,0,0,0,0,0,0,0,0,0,0,0,0,0,0,0,0,0,0,0,0,0,0,0,0,0,0,13,-0.1056894,0,42.3074,0.0009957802,9.325712E-05,35.45123,0.06067853,1,3.064143
5.001,4.349598,1.562639,21.8882,5.454117,27.4904,11.0081,48,49,0.7464653,4.240479,4.349598,0.004779143,600.3373,1.167323,-0.3738157,0.486383,-0.5344513,6.895597,-35.02375,-30.44919,27.49785,-47.98605,41.17647,0.75,1112,25,23,0,27.45098,28.23529,0.8804097,10.55922,-0.22,4.71091,646.0842,336.1181,22.3234,5.612038,225,74,4295,0.97,1.569408,1.34375,1.549888,-0.00390625,0,0,0,0,0,0,0,0,0,0,0,0,13.04,0,0,0,0,0,0,0,0,0,30,31,0,0,0,0,0,0,0,3,0,0,0,0,0,0,0,0,0,0,0,0,0,0,0,0,0,0,0,0,0,0,0,0,0,0,0,0,0,0,0,0,0,0,0,0,0,0,0,0,0,0,0,0,0,0,0,13,-0.1200618,0,22.75642,0.007397089,0.0004694639,24.02449,0.09080219,1,4.871557
6.000,4.349598,1.562639,21.8882,-4.487533,23.48628,0.1618195,48,49,0.7464653,4.240479,4.349598,0.004779143,600.3373,1.167323,-0.3768604,0.311234,-0.5951661,-0.6982911,-32.61794,-27.1059,26.91154,-45.20341,41.17647,0.75,1112,25,23,0,27.45098,28.23529,0.8804097,10.55922,-0.22,4.71091,646.0842,335.8613,22.3234,5.612038,225,74,4295,0.97,1.569408,1.34375,1.549888,-0.00390625,0,0,0,0,0,0,0,0,0,0,0,0,13.04,0,0,0,0,0,0,0,0,0,30,31,0,0,0,0,0,0,0,3,0,0,0,0,0,0,0,0,0,0,0,0,0,0,0,0,0,0,0,0,0,0,0,0,0,0,0,0,0,0,0,0,0,0,0,0,0,0,0,0,0,0,0,0,0,0,0,13,-0.1200618,0,22.75642,0.007397089,0.0004694639,24.02449,0.09080219,1,4.871557
7.000,6.213712,2.115126,21.89094,2.861343,10.11229,-4.091888,48,49,0.3661396,5.23378,6.213712,0.007527819,568.8148,1.580041,-0.04781227,0.08280678,-0.02995438,-2.79859,-30.0435,-23.67061,24.70448,-44.9001,59.21569,0.91,1219.5,25,23,0,30.58824,30.58824,1.246541,14.05041,-0.06,6.376499,615.6117,335.8613,21.15124,5.612556,225,74,4295,0.97,1.565016,1.308594,1.457168,-0.00390625,0,0,0,0,0,0,0,0,0,0,0,0,13.04,0,0,0,0,0,0,0,0,0,30,31,0,0,0,0,0,0,0,3,0,0,0,0,0,0,0,0,0,0,0,0,0,0,0,0,0,0,0,0,0,0,0,0,0,0,0,0,0,0,0,0,0,0,0,0,0,0,0,0,0,0,0,0,0,0,0,13.1,-0.02510508,0,22.69273,0.01222819,0.0007394714,22.89138,0.1205714,1,6.657704
8.000,8.699197,3.161343,21.89521,1.938019,-8.817123,2.288818,48,49,0.5473199,7.790652,8.699197,0.0117906,607.2649,2.361586,-0.1571083,-0.06974005,0.6727492,0.09666964,-29.95658,-23.93469,25.79457,-44.6429,58.03922,0.9,1224.5,25,23,0,30.19608,29.80392,1.181346,13.95298,-0.07,9.530543,612.5438,335.8452,22.581,5.613377,225,74,4295,0.97,1.553792,1.289063,1.408368,-0.00390625,0,0,0,0,0,0,0,0,0,0,0,0,13.04,0,0,0,0,0,0,0,0,0,30,31,0,0,0,0,0,0,0,3,0,0,0,0,0,0,0,0,0,0,0,0,0,0,0,0,0,0,0,0,0,0,0,0,0,0,0,0,0,0,0,0,0,0,0,0,0,0,0,0,0,0,0,0,0,0,0,13.1,0.02444252,0,22.52998,0.01924858,0.001158212,22.7773,0.1495917,1,6.657704
9.000,8.699197,3.161343,21.89521,4.210861,1.065231,3.79744,48,49,0.5473199,7.790652,8.699197,0.0117906,607.2649,2.361586,0.04521109,-0.4710814,0.3312582,-0.2805556,-32.33301,-27.92802,27.11004,-41.06917,58.03922,0.9,1224.5,25,23,0,30.19608,29.80392,1.181346,13.95298,-0.07,9.530543,612.5438,335.924,22.581,5.613377,225,74,4295,0.97,1.553792,1.289063,1.408368,-0.00390625,0,0,0,0,0,0,0,0,0,0,0,0,13.04,0,0,0,0,0,0,0,0,0,30,31,0,0,0,0,0,0,0,3,0,0,0,0,0,0,0,0,0,0,0,0,0,0,0,0,0,0,0,0,0,0,0,0,0,0,0,0,0,0,0,0,0,0,0,0,0,0,0,0,0,0,0,0,0,0,0,13.1,0.02444252,0,22.52998,0.01924858,0.001158212,22.7773,0.1495917,1,6.657704
10.000,8.699197,3.161343,21.89521,-12.09116,2.460297,-5.867294,48,49,0.5473199,7.790652,8.699197,0.0117906,607.2649,2.361586,-0.6011835,0.1064084,1.265176,-0.2287577,-33.30416,-27.73898,28.92173,-39.72908,58.03922,0.9,1224.5,25,23,0,30.19608,29.80392,1.181346,13.95298,-0.07,9.530543,612.5438,335.9265,22.581,5.613377,225,74,4295,0.97,1.553792,1.289063,1.408368,-0.00390625,0,0,0,0,0,0,0,0,0,0,0,0,13.04,0,0,0,0,0,0,0,0,0,30,31,0,0,0,0,0,0,0,3,0,0,0,0,0,0,0,0,0,0,0,0,0,0,0,0,0,0,0,0,0,0,0,0,0,0,0,0,0,0,0,0,0,0,0,0,0,0,0,0,0,0,0,0,0,0,0,13.1,0.02444252,0,22.52998,0.01924858,0.001158212,22.7773,0.1495917,1,6.657704
11.000,10.56331,2.8726,21.89895,28.98211,39.75706,-1.108704,48,49,0.5481293,6.879639,10.56331,0.01553416,454.4236,2.145889,-0.9676239,0.5615216,-2.007621,9.230841,-28.21863,-18.30415,22.85975,-51.38483,53.33333,0.78,1260,25,23,0,14.90196,14.90196,1.090734,12.44317,-0.19,8.660066,566.2416,336.1112,16.89763,5.614019,225,74,4295,0.97,8.492664,3.355469,8.138376,-0.00390625,0,0,0,0,0,0,0,0,0,0,0,0,13.04,0,0,0,0,0,0,0,0,0,30,31,0,0,0,0,0,0,0,3,0,0,0,0,0,0,0,0,0,0,0,0,0,0,0,0,0,0,0,0,0,0,0,0,0,0,0,0,0,0,0,0,0,0,0,0,0,0,0,0,0,0,0,0,0,0,0,13.1,0.056814,0,123.1436,0.0274338,0.001525949,21.05556,0.1845971,1,6.657704
12.002,9.941939,2.210406,21.90241,14.42648,33.22067,-1.256409,48,49,0.1741693,6.083092,10.56331,0.01899788,371.5238,1.651217,0.01952717,0.03022842,-1.458179,7.758834,-32.16896,-12.2702,27.40526,-55.35141,29.80392,0.73,1096.5,25,23,0,21.17647,21.56863,0.8876197,10.13438,-0.24,6.66374,516.86,336.268,13.81503,5.614547,225,74,4295,0.97,1.675304,1.410156,1.672864,-0.00390625,0,0,0,0,0,0,0,0,0,0,0,0,13.04,0,0,0,0,0,0,0,0,0,30,31,0,0,0,0,0,0,0,3,0,0,0,0,0,0,0,0,0,0,0,0,0,0,0,0,0,0,0,0,0,0,0,0,0,0,0,0,0,0,0,0,0,0,0,0,0,0,0,0,0,0,0,0,0,0,0,13.1,0.04357115,0,24.29191,0.03675633,0.001866196,19.21932,0.2136013,1,6.657704
13.001,9.941939,2.210406,21.90241,1.804367,21.98909,2.1716,48,49,0.1741693,6.083092,10.56331,0.01899788,371.5238,1.651217,-0.666143,0.5204038,1.64641,7.385445,-38.98854,-9.539406,38.9929,-48.91925,29.80392,0.73,1096.5,25,23,0,21.17647,21.56863,0.8876197,10.13438,-0.24,6.66374,516.86,336.1371,13.81503,5.614547,225,74,4295,0.97,1.675304,1.410156,1.672864,-0.00390625,0,0,0,0,0,0,0,0,0,0,0,0,13.04,0,0,0,0,0,0,0,0,0,30,31,0,0,0,0,0,0,0,3,0,0,0,0,0,0,0,0,0,0,0,0,0,0,0,0,0,0,0,0,0,0,0,0,0,0,0,0,0,0,0,0,0,0,0,0,0,0,0,0,0,0,0,0,0,0,0,13.1,0.04357115,0,24.29191,0.03675633,0.001866196,19.21932,0.2136013,1,6.657704
14.001,10.56331,1.436736,21.90428,12.5667,0.1652527,6.745804,48,49,0.01335974,3.43405,10.56331,0.02085969,227.2808,1.07327,0.6107054,-0.661927,0.547834,8.730013,-40.38991,-5.261223,35.62184,-44.88451,52.15686,0.8,1262.5,25,23,0,24.70588,25.09804,1.186367,12.78754,-0.17,4.331348,463.5638,335.9622,8.451383,5.614705,225,74,4295,0.97,1.587464,1.339844,1.458632,-0.00390625,0,0,0,0,0,0,0,0,0,0,0,0,13.04,0,0,0,0,0,0,0,0,0,30,31,0,0,0,0,0,0,0,3,0,0,0,0,0,0,0,0,0,0,0,0,0,0,0,0,0,0,0,0,0,0,0,0,0,0,0,0,0,0,0,0,0,0,0,0,0,0,0,0,0,0,0,0,0,0,0,13.1,0.1536127,0,23.01823,0.04499852,0.002049085,17.23751,0.2436335,1,6.657704
15.001,10.56331,1.436736,21.90428,6.079437,1.327835,-9.85556,48,49,0.01335974,3.43405,10.56331,0.02085969,227.2808,1.07327,0.185533,0.2344287,0.1444175,5.292717,-38.29867,-0.6611862,31.99563,-42.26303,52.15686,0.8,1262.5,25,23,0,24.70588,25.09804,1.186367,12.78754,-0.17,4.331348,463.5638,336.0979,8.451383,5.614705,225,74,4295,0.97,1.587464,1.339844,1.458632,-0.00390625,0,0,0,0,0,0,0,0,0,0,0,0,13.04,0,0,0,0,0,0,0,0,0,30,31,0,0,0,0,0,0,0,3,0,0,0,0,0,0,0,0,0,0,0,0,0,0,0,0,0,0,0,0,0,0,0,0,0,0,0,0,0,0,0,0,0,0,0,0,0,0,0,0,0,0,0,0,0,0,0,13.1,0.1536127,0,23.01823,0.04499852,0.002049085,17.23751,0.2436335,1,6.657704
16.001,11.80605,2.776861,21.908,-3.639389,-2.605865,0.9786988,48,49,0.2341273,6.204697,11.80605,0.02458686,393.0386,2.07437,0.679248,-0.2380293,-0.1379293,3.868161,-35.8532,0.7475128,29.58002,-41.50377,58.43137,0.84,1350.5,25,23,0,29.80392,29.80392,1.137982,14.36282,-0.13,8.371441,451.2656,336.3332,14.61505,5.615293,225,74,4295,0.97,1.562088,1.316406,1.448872,-0.00390625,0,0,0,0,0,0,0,0,0,0,0,0,13.04,0,0,0,0,0,0,0,0,0,30,31,0,0,0,0,0,0,0,3,0,0,0,0,0,0,0,0,0,0,0,0,0,0,0,0,0,0,0,0,0,0,0,0,0,0,0,0,0,0,0,0,0,0,0,0,0,0,0,0,0,0,0,0,0,0,0,13.1,0.2148583,0,22.65028,0.05448424,0.002415212,16.7802,0.2726895,1,6.657704
17.001,11.80605,2.776861,21.908,0.4835968,2.822052,-2.269226,48,49,0.2341273,6.204697,11.80605,0.02458686,393.0386,2.07437,-0.1951474,-0.2781836,-0.2775657,0.4894525,-35.09034,-1.251503,28.45146,-39.04015,58.43137,0.84,1350.5,25,23,0,29.80392,29.80392,1.137982,14.36282,-0.13,8.371441,451.2656,336.3255,14.61505,5.615293,225,74,4295,0.97,1.562088,1.316406,1.448872,-0.00390625,0,0,0,0,0,0,0,0,0,0,0,0,13.04,0,0,0,0,0,0,0,0,0,30,31,0,0,0,0,0,0,0,3,0,0,0,0,0,0,0,0,0,0,0,0,0,0,0,0,0,0,0,0,0,0,0,0,0,0,0,0,0,0,0,0,0,0,0,0,0,0,0,0,0,0,0,0,0,0,0,13.1,0.2148583,0,22.65028,0.05448424,0.002415212,16.7802,0.2726895,1,6.657704
18.001,13.04879,3.338381,21.91236,12.52768,-1.926178,-5.725708,48,49,0.3136486,6.804379,13.04879,0.02894747,427.5149,2.493837,-1.08825,0.5517374,0.03137017,-5.460422,-32.90187,-3.724678,24.27467,-36.08977,55.29412,0.81,1480.5,26,23,0,20.78431,17.2549,1.141614,15.18306,-0.16,10.06426,447.6241,336.7652,15.89704,5.616016,225,74,4295,0.97,15.56476,3.605469,11.76324,-0.00390625,0,0,0,0,0,0,0,0,0,0,0,0,13.04,0,0,0,0,0,0,0,0,0,30,31,0,0,0,0,0,0,0,3,0,0,0,0,0,0,0,0,0,0,0,0,0,0,0,0,0,0,0,0,0,0,0,0,0,0,0,0,0,0,0,0,0,0,0,0,0,0,0,0,0,0,0,0,0,0,0,13.2,0.3722347,0,225.689,0.06466915,0.002843563,16.6448,0.30803,1,6.657704
19.001,13.04879,3.338381,21.91236,1.83522,-19.96907,-3.620682,48,49,0.3136486,6.804379,13.04879,0.02894747,427.5149,2.493837,1.578396,-0.400931,0.7862886,-2.880855,-33.42543,-5.067993,24.73233,-37.32903,55.29412,0.81,1480.5,26,23,0,20.78431,17.2549,1.141614,15.18306,-0.16,10.06426,447.6241,336.8686,15.89704,5.616016,225,74,4295,0.97,15.56476,3.605469,11.76324,-0.00390625,0,0,0,0,0,0,0,0,0,0,0,0,13.04,0,0,0,0,0,0,0,0,0,30,31,0,0,0,0,0,0,0,3,0,0,0,0,0,0,0,0,0,0,0,0,0,0,0,0,0,0,0,0,0,0,0,0,0,0,0,0,0,0,0,0,0,0,0,0,0,0,0,0,0,0,0,0,0,0,0,13.2,0.3722347,0,225.689,0.06466915,0.002843563,16.6448,0.30803,1,6.657704
20.001,12.42742,2.544143,21.91641,10.73747,-3.450348,-3.823364,48,49,0.09389532,6.047415,13.04879,0.03299108,342.0945,1.900525,0.4974456,-0.06432302,0.2874241,-2.124283,-31.92826,-0.5147476,26.53922,-43.30214,0,0.73,1269.5,26,23,0,14.90196,15.29412,0.8414582,11.69411,-0.24,7.669862,431.2357,337.2328,12.7207,5.616595,225,74,4295,0.97,15.9903,3.808594,15.9903,-0.00390625,0,0,0,0,0,0,0,0,0,0,0,0,13.04,0,0,0,0,0,0,0,0,0,30,31,0,0,0,0,0,0,0,3,0,0,0,0,0,0,0,0,0,0,0,0,0,0,0,0,0,0,0,0,0,0,0,0,0,0,0,0,0,0,0,0,0,0,0,0,0,0,0,0,0,0,0,0,0,0,0,13.2,0.3591954,0,231.8593,0.07650359,0.003240774,16.0354,0.3370955,1,6.657704
21.001,12.42742,2.544143,21.91641,-5.131775,-28.97005,-5.384537,48,49,0.09389532,6.047415,13.04879,0.03299108,342.0945,1.900525,-0.9296935,0.05784058,-0.6471749,-3.295669,-29.06183,-5.725075,26.02118,-48.34517,0,0.73,1269.5,26,23,0,14.90196,15.29412,0.8414582,11.69411,-0.24,7.669862,431.2357,337.4867,12.7207,5.616595,225,74,4295,0.97,15.9903,3.808594,15.9903,-0.00390625,0,0,0,0,0,0,0,0,0,0,0,0,13.04,0,0,0,0,0,0,0,0,0,30,31,0,0,0,0,0,0,0,3,0,0,0,0,0,0,0,0,0,0,0,0,0,0,0,0,0,0,0,0,0,0,0,0,0,0,0,0,0,0,0,0,0,0,0,0,0,0,0,0,0,0,0,0,0,0,0,13.2,0.3591954,0,231.8593,0.07650359,0.003240774,16.0354,0.3370955,1,6.657704
22.001,9.320568,0,21.91641,4.817673,-32.96791,-14.1049,48,49,-0.4661372,0,13.04879,0.03299108,0,0,0.2905462,-0.1645078,0.618093,-2.045342,-34.65359,-19.48057,30.50668,-45.20613,46.27451,0.7,1036,26,23,0,19.60784,20.39216,0.7172586,9.151017,-0.27,0,394.0623,338.5138,0,5.616315,244,74,4295,0.97,2.040328,1.851563,1.460096,-0.00390625,0,0,0,0,0,0,0,0,0,0,0,0,13.06,0,0,0,0,0,0,0,0,0,31,32,0,0,0,0,0,0,0,3,0,0,0,0,0,0,0,0,0,0,0,0,0,0,0,0,0,0,0,0,0,0,0,0,0,0,0,0,0,0,0,0,0,0,0,0,0,0,0,0,0,0,0,0,0,0,0,13.1,0.155028,0,29.58476,0.08372048,0.003240774,14.65311,0.3745277,1,6.657704
23.003,9.320568,0,21.91641,20.23528,-9.728928,6.164825,48,49,-0.4661372,0,13.04879,0.03299108,0,0,1.324636,0.1012057,1.248207,-2.464027,-33.09233,-28.43044,24.42031,-40.92587,46.27451,0.7,1036,26,23,0,19.60784,20.39216,0.7172586,9.151017,-0.27,0,394.0623,338.6234,0,5.616315,244,74,4295,0.97,2.040328,1.851563,1.460096,-0.00390625,0,0,0,0,0,0,0,0,0,0,0,0,13.06,0,0,0,0,0,0,0,0,0,31,32,0,0,0,0,0,0,0,3,0,0,0,0,0,0,0,0,0,0,0,0,0,0,0,0,0,0,0,0,0,0,0,0,0,0,0,0,0,0,0,0,0,0,0,0,0,0,0,0,0,0,0,0,0,0,0,13.1,0.155028,0,29.58476,0.08372048,0.003240774,14.65311,0.3745277,1,6.657704
24.002,8.699197,1.485793,21.91891,-16.8221,-11.86792,-21.78044,48,49,-0.4626278,4.393458,13.04879,0.03548981,285.4073,1.109917,0.7423094,0.001815737,-0.7314161,-5.209842,-31.80351,-32.76542,19.94022,-38.85669,64.31373,0.7,1020.5,26,23,0,21.17647,21.96078,0.8391417,9.014105,-0.27,4.479242,383.7739,337.8529,10.6128,5.616617,244,74,4295,0.97,1.552328,1.246094,1.377136,-0.00390625,0,0,0,0,0,0,0,0,0,0,0,0,13.06,0,0,0,0,0,0,0,0,0,31,32,0,0,0,0,0,0,0,3,0,0,0,0,0,0,0,0,0,0,0,0,0,0,0,0,0,0,0,0,0,0,0,0,0,0,0,0,0,0,0,0,0,0,0,0,0,0,0,0,0,0,0,0,0,0,0,13.1,0.1173768,0,22.50876,0.09247584,0.003486229,14.27054,0.4035887,1,6.657704
25.002,8.699197,1.485793,21.91891,-1.086212,-26.95758,-32.0302,48,49,-0.4626278,4.393458,13.04879,0.03548981,285.4073,1.109917,-1.165714,-0.225948,1.058214,-5.313725,-31.27017,-37.54811,14.80639,-30.43665,64.31373,0.7,1020.5,26,23,0,21.17647,21.96078,0.8391417,9.014105,-0.27,4.479242,383.7739,337.0113,10.6128,5.616617,244,74,4295,0.97,1.552328,1.246094,1.377136,-0.00390625,0,0,0,0,0,0,0,0,0,0,0,0,13.06,0,0,0,0,0,0,0,0,0,31,32,0,0,0,0,0,0,0,3,0,0,0,0,0,0,0,0,0,0,0,0,0,0,0,0,0,0,0,0,0,0,0,0,0,0,0,0,0,0,0,0,0,0,0,0,0,0,0,0,0,0,0,0,0,0,0,13.1,0.1173768,0,22.50876,0.09247584,0.003486229,14.27054,0.4035887,1,6.657704
26.002,8.699197,2.827376,21.92257,8.988861,-29.78338,-27.42537,48,49,-0.06169055,7.157616,13.04879,0.03915876,543.113,2.112106,-0.1581957,0.2910521,0.3843499,-8.032301,-34.59869,-40.93357,5.267838,-17.23807,69.41177,0.77,1192,25,23,0,21.96078,21.56863,1.166394,11.58187,-0.2,8.523729,394.6269,336.3963,20.19553,5.617296,244,74,4295,0.97,1.912472,1.738281,1.555744,-0.00390625,0,0,0,0,0,0,0,0,0,0,0,0,13.06,0,0,0,0,0,0,0,0,0,31,32,0,0,0,0,0,0,0,3,0,0,0,0,0,0,0,0,0,0,0,0,0,0,0,0,0,0,0,0,0,0,0,0,0,0,0,0,0,0,0,0,0,0,0,0,0,0,0,0,0,0,0,0,0,0,0,13.1,0.06946197,0,27.73084,0.09922983,0.003846637,14.67411,0.4385658,1,6.657704
27.002,8.699197,2.827376,21.92257,-8.061157,-14.30025,-6.065567,48,49,-0.06169055,7.157616,13.04879,0.03915876,543.113,2.112106,-1.087142,-0.1364428,-0.9251221,-7.513371,-34.62812,-37.9646,3.505322,-10.99472,69.41177,0.77,1192,25,23,0,21.96078,21.56863,1.166394,11.58187,-0.2,8.523729,394.6269,337.4561,20.19553,5.617296,244,74,4295,0.97,1.912472,1.738281,1.555744,-0.00390625,0,0,0,0,0,0,0,0,0,0,0,0,13.06,0,0,0,0,0,0,0,0,0,31,32,0,0,0,0,0,0,0,3,0,0,0,0,0,0,0,0,0,0,0,0,0,0,0,0,0,0,0,0,0,0,0,0,0,0,0,0,0,0,0,0,0,0,0,0,0,0,0,0,0,0,0,0,0,0,0,13.1,0.06946197,0,27.73084,0.09922983,0.003846637,14.67411,0.4385658,1,6.657704
28.002,9.320568,3.807261,21.92854,11.00394,-5.428543,-0.05116272,48,49,0.06586407,9.370941,13.04879,0.04512178,682.5839,2.8441,-0.55793,-0.2160603,-0.4216526,-5.96193,-36.34074,-36.97552,1.891415,-7.901779,76.47059,0.93,1226,25,23,0,33.72549,34.90196,1.241731,14.43574,-0.04,11.4778,417.7317,337.4041,25.38172,5.618483,244,74,4295,0.97,1.209752,0.640625,1.308328,-0.00390625,0,0,0,0,0,0,0,0,0,0,0,0,13.06,0,0,0,0,0,0,0,0,0,31,32,0,0,0,0,0,0,0,3,0,0,0,0,0,0,0,0,0,0,0,0,0,0,0,0,0,0,0,0,0,0,0,0,0,0,0,0,0,0,0,0,0,0,0,0,0,0,0,0,0,0,0,0,0,0,0,13.1,0.02108563,0,17.5414,0.1080162,0.004432395,15.53326,0.4675079,1,6.657704
29.002,12.42742,5.955926,21.93627,1.094101,5.97522,3.123383,48,49,0.4653588,11.84745,13.04879,0.05285552,800.8551,4.449195,-0.5231522,-0.2357813,-0.2788538,-5.273968,-35.03175,-36.12162,2.763752,-7.876785,71.37255,1.13,1517,25,23,0,35.68628,36.07843,1.714307,21.7035,0.16,17.95541,449.1713,337.2933,29.77961,5.620091,244,74,4295,0.97,1.43716,1.109375,1.368352,-0.00390625,0,0,0,0,0,0,0,0,0,0,0,0,13.06,0,0,0,0,0,0,0,0,0,31,32,0,0,0,0,0,0,0,3,0,0,0,0,0,0,0,0,0,0,0,0,0,0,0,0,0,0,0,0,0,0,0,0,0,0,0,0,0,0,0,0,0,0,0,0,0,0,0,0,0,0,0,0,0,0,0,13.1,0.05290787,0,20.83882,0.1176734,0.005192094,16.70233,0.497566,1,6.657704
30.004,12.42742,5.955926,21.93627,4.48201,6.81311,9.440521,48,49,0.4653588,11.84745,13.04879,0.05285552,800.8551,4.449195,-0.4709763,-0.110807,-0.1394871,-2.539721,-34.91539,-35.34118,6.156759,-9.925781,71.37255,1.13,1517,25,23,0,35.68628,36.07843,1.714307,21.7035,0.16,17.95541,449.1713,337.2959,29.77961,5.620091,244,74,4295,0.97,1.43716,1.109375,1.368352,-0.00390625,0,0,0,0,0,0,0,0,0,0,0,0,13.06,0,0,0,0,0,0,0,0,0,31,32,0,0,0,0,0,0,0,3,0,0,0,0,0,0,0,0,0,0,0,0,0,0,0,0,0,0,0,0,0,0,0,0,0,0,0,0,0,0,0,0,0,0,0,0,0,0,0,0,0,0,0,0,0,0,0,13.1,0.05290787,0,20.83882,0.1176734,0.005192094,16.70233,0.497566,1,6.657704
31.002,15.53428,5.320717,21.94345,0.02700806,4.012787,-0.3846893,48,49,0.7864997,9.007445,15.53428,0.06003549,572.3541,3.974681,0.1588745,-0.1893468,-0.3918063,2.631274,-34.09768,-30.76373,12.33361,-17.10927,64.70588,0.89,1782.5,25,23,0,25.4902,23.92157,1.326104,20.08562,-0.08,16.04044,461.3339,337.1223,21.28285,5.621448,244,74,4295,0.97,5.622736,3.214844,3.872768,-0.00390625,0,0,0,0,0,0,0,0,0,0,0,0,13.06,0,0,0,0,0,0,0,0,0,31,32,0,0,0,0,0,0,0,3,0,0,0,0,0,0,0,0,0,0,0,0,0,0,0,0,0,0,0,0,0,0,0,0,0,0,0,0,0,0,0,0,0,0,0,0,0,0,0,0,0,0,0,0,0,0,0,13.1,0.1435517,0,81.52967,0.1301346,0.005897396,17.15459,0.5266343,1,6.657704
32.002,15.53428,5.320717,21.94345,-2.236465,3.853363,2.657425,48,49,0.7864997,9.007445,15.53428,0.06003549,572.3541,3.974681,-0.4865021,0.5727636,-0.106588,-0.07202853,-35.22462,-34.32766,9.513134,-14.51799,64.70588,0.89,1782.5,25,23,0,25.4902,23.92157,1.326104,20.08562,-0.08,16.04044,461.3339,337.2883,21.28285,5.621448,244,74,4295,0.97,5.622736,3.214844,3.872768,-0.00390625,0,0,0,0,0,0,0,0,0,0,0,0,13.06,0,0,0,0,0,0,0,0,0,31,32,0,0,0,0,0,0,0,3,0,0,0,0,0,0,0,0,0,0,0,0,0,0,0,0,0,0,0,0,0,0,0,0,0,0,0,0,0,0,0,0,0,0,0,0,0,0,0,0,0,0,0,0,0,0,0,13.1,0.1435517,0,81.52967,0.1301346,0.005897396,17.15459,0.5266343,1,6.657704
33.002,15.53428,2.181756,21.94628,-2.788498,0.5339508,-2.857605,48,49,0.387005,4.126392,15.53428,0.06285978,234.6934,1.629815,-0.08539911,-0.3178288,-1.472663,-1.403409,-33.86757,-34.09977,10.33708,-13.31105,0,0.69,1595.5,23,23,0,14.90196,14.90196,0.5104547,13.93836,-0.28,6.57737,441.9105,337.3313,8.727018,5.621702,244,74,4295,0.97,15.9903,3.847656,15.9903,-0.00390625,0,0,0,0,0,0,0,0,0,0,0,0,13.06,0,0,0,0,0,0,0,0,0,31,32,0,0,0,0,0,0,0,3,0,0,0,0,0,0,0,0,0,0,0,0,0,0,0,0,0,0,0,0,0,0,0,0,0,0,0,0,0,0,0,0,0,0,0,0,0,0,0,0,0,0,0,0,0,0,0,15,0.1276369,0,231.8593,0.1422455,0.006174831,16.43234,0.5616206,1,6.657704
34.002,15.53428,2.181756,21.94628,12.34315,-5.512833,13.06917,48,49,0.387005,4.126392,15.53428,0.06285978,234.6934,1.629815,0.2250479,-0.4400022,-0.2413906,2.300833,-31.61094,-29.72035,12.06765,-18.2325,0,0.69,1595.5,23,23,0,14.90196,14.90196,0.5104547,13.93836,-0.28,6.57737,441.9105,337.6393,8.727018,5.621702,244,74,4295,0.97,15.9903,3.847656,15.9903,-0.00390625,0,0,0,0,0,0,0,0,0,0,0,0,13.06,0,0,0,0,0,0,0,0,0,31,32,0,0,0,0,0,0,0,3,0,0,0,0,0,0,0,0,0,0,0,0,0,0,0,0,0,0,0,0,0,0,0,0,0,0,0,0,0,0,0,0,0,0,0,0,0,0,0,0,0,0,0,0,0,0,0,15,0.1276369,0,231.8593,0.1422455,0.006174831,16.43234,0.5616206,1,6.657704
35.002,11.18468,0,21.94628,-10.88208,-7.176834,-11.29916,48,49,-0.4638792,0,15.53428,0.06285978,0,0,-0.6832122,-0.467382,1.088342,-0.5357596,-34.29352,-30.25486,10.07359,-16.89131,0,0.71,1119,23,23,0,14.90196,14.90196,0.5831752,10.12692,-0.26,0,411.5887,337.3629,0,5.621296,244,74,4295,0.97,2.087176,1.878906,1.528904,-0.00390625,0,0,0,0,0,0,0,0,0,0,0,0,13.06,0,0,0,0,0,0,0,0,0,31,32,0,0,0,0,0,0,0,3,0,0,0,0,0,0,0,0,0,0,0,0,0,0,0,0,0,0,0,0,0,0,0,0,0,0,0,0,0,0,0,0,0,0,0,0,0,0,0,0,0,0,0,0,0,0,0,15,0.003950409,0,30.26405,0.1527248,0.006174831,15.30483,0.5907093,1,6.657704
36.002,11.18468,0,21.94628,-7.684189,12.31993,-9.094894,48,49,-0.4638792,0,15.53428,0.06285978,0,0,0.7631265,0.6984526,-0.9424944,1.484135,-34.39615,-29.97839,9.881071,-17.50761,0,0.71,1119,23,23,0,14.90196,14.90196,0.5831752,10.12692,-0.26,0,411.5887,337.0695,0,5.621296,244,74,4295,0.97,2.087176,1.878906,1.528904,-0.00390625,0,0,0,0,0,0,0,0,0,0,0,0,13.06,0,0,0,0,0,0,0,0,0,31,32,0,0,0,0,0,0,0,3,0,0,0,0,0,0,0,0,0,0,0,0,0,0,0,0,0,0,0,0,0,0,0,0,0,0,0,0,0,0,0,0,0,0,0,0,0,0,0,0,0,0,0,0,0,0,0,15,0.003950409,0,30.26405,0.1527248,0.006174831,15.30483,0.5907093,1,6.657704
37.003,4.97097,0,21.94628,-11.09094,4.96756,0.9210052,48,49,-1.258807,0,15.53428,0.06285978,0,0,0.747972,0.5301613,-0.749137,0.1102407,-34.78603,-24.81672,11.49083,-20.74312,61.96078,0.8,1016.5,23,23,0,14.90196,14.90196,0.8350122,10.3654,-0.17,0,401.3845,337.4458,0,5.621146,244,74,4295,0.97,1.830488,1.644531,1.326872,-0.00390625,0,0,0,0,0,0,0,0,0,0,0,0,13.06,0,0,0,0,0,0,0,0,0,31,32,0,0,0,0,0,0,0,3,0,0,0,0,0,0,0,0,0,0,0,0,0,0,0,0,0,0,0,0,0,0,0,0,0,0,0,0,0,0,0,0,0,0,0,0,0,0,0,0,0,0,0,0,0,0,0,13.4,-0.1868541,0,26.54208,0.1566074,0.006174831,14.92539,0.6207644,1,6.657704
38.003,0,2.386617,21.94948,11.12993,9.689651,-10.23817,48,49,-1.413403,6.488149,15.53428,0.06606095,0,1.782851,-1.312065,-0.1140911,0.1208477,-3.120765,-41.08733,-37.31464,10.89923,-16.38667,89.80392,0.93,1110,23,23,0,40.39216,40.78431,1.015687,13.15815,-0.04,7.194968,421.8252,337.3786,0,5.621966,244,74,4295,0.97,1.286856,0.8515625,1.3786,-0.00390625,0,0,0,0,0,0,0,0,0,0,0,0,13.06,0,0,0,0,0,0,0,0,0,31,32,0,0,0,0,0,0,0,3,0,0,0,0,0,0,0,0,0,0,0,0,0,0,0,0,0,0,0,0,0,0,0,0,0,0,0,0,0,0,0,0,0,0,0,0,0,0,0,0,0,0,0,0,0,0,0,13.4,-0.2975092,0,18.65941,0.1566074,0.006489288,15.68547,0.6494828,2,6.657706
39.003,0,2.386617,21.94948,24.30276,31.71828,21.82747,48,49,-1.413403,6.488149,15.53428,0.06606095,0,1.782851,-0.2086925,-0.1902134,-0.1175504,6.629415,-37.40274,-38.62473,19.79148,-18.77727,89.80392,0.93,1110,23,23,0,40.39216,40.78431,1.015687,13.15815,-0.04,7.194968,421.8252,337.4922,0,5.621966,244,74,4295,0.97,1.286856,0.8515625,1.3786,-0.00390625,0,0,0,0,0,0,0,0,0,0,0,0,13.06,0,0,0,0,0,0,0,0,0,31,32,0,0,0,0,0,0,0,3,0,0,0,0,0,0,0,0,0,0,0,0,0,0,0,0,0,0,0,0,0,0,0,0,0,0,0,0,0,0,0,0,0,0,0,0,0,0,0,0,0,0,0,0,0,0,0,13.4,-0.2975092,0,18.65941,0.1566074,0.006489288,15.68547,0.6494828,2,6.657706
40.003,0,2.386617,21.94948,6.91011,11.92694,-3.998627,48,49,-1.413403,6.488149,15.53428,0.06606095,0,1.782851,-1.078875,-0.2258391,0.6242474,5.544795,-39.33096,-40.24622,26.07099,-25.48183,89.80392,0.93,1110,23,23,0,40.39216,40.78431,1.015687,13.15815,-0.04,7.194968,421.8252,337.6718,0,5.621966,244,74,4295,0.97,1.286856,0.8515625,1.3786,-0.00390625,0,0,0,0,0,0,0,0,0,0,0,0,13.06,0,0,0,0,0,0,0,0,0,31,32,0,0,0,0,0,0,0,3,0,0,0,0,0,0,0,0,0,0,0,0,0,0,0,0,0,0,0,0,0,0,0,0,0,0,0,0,0,0,0,0,0,0,0,0,0,0,0,0,0,0,0,0,0,0,0,13.4,-0.2975092,0,18.65941,0.1566074,0.006489288,15.68547,0.6494828,2,6.657706
41.005,0,2.386617,21.94948,8.156036,18.43408,7.272888,48,49,-1.413403,6.488149,15.53428,0.06606095,0,1.782851,-0.06559795,0.1928961,0.02280717,-4.360442,-40.11843,-35.37505,22.79876,-29.45195,89.80392,0.93,1110,23,23,0,40.39216,40.78431,1.015687,13.15815,-0.04,7.194968,421.8252,337.509,0,5.621966,244,74,4295,0.97,1.286856,0.8515625,1.3786,-0.00390625,0,0,0,0,0,0,0,0,0,0,0,0,13.06,0,0,0,0,0,0,0,0,0,31,32,0,0,0,0,0,0,0,3,0,0,0,0,0,0,0,0,0,0,0,0,0,0,0,0,0,0,0,0,0,0,0,0,0,0,0,0,0,0,0,0,0,0,0,0,0,0,0,0,0,0,0,0,0,0,0,13.4,-0.2975092,0,18.65941,0.1566074,0.006489288,15.68547,0.6494828,2,6.657706
42.003,6.213712,7.993219,21.9599,-28.86477,18.07378,12.40366,53,55,0.1771038,13.8503,15.53428,0.07648231,2149.594,5.971093,0.2595798,0.2805348,0.3441779,-1.9456,-38.90079,-35.23463,26.7338,-32.43163,60.39216,1.04,1741.5,28,23,0,34.5098,34.11765,2.149337,23.08584,0.07,24.09727,473.7016,337.616,79.93213,5.624447,263,74,4295,0.97,1.245376,0.7226563,1.293688,-0.00390625,0,0,0,0,0,0,0,0,0,0,0,0,13.4,0,0,0,0,0,0,0,0,0,40,32,0,0,0,0,0,0,0,3,0,0,0,0,0,0,0,0,0,0,0,0,0,0,0,0,0,0,0,0,0,0,0,0,0,0,0,0,0,0,0,0,0,0,0,0,0,0,0,0,0,0,0,0,0,0,0,13.4,-0.05820594,0,18.05795,0.1614567,0.007512997,17.61448,0.7025861,2,9.84395
43.003,12.42742,5.621053,21.97326,9.592102,-14.30633,-21.42528,53,55,1.233672,10.71175,15.53428,0.08984015,755.8268,4.199038,0.6060296,0.7046873,1.429335,-6.180603,-36.61615,-36.55594,20.27156,-28.75653,68.23529,1.35,1583.5,28,23,0,43.52941,44.31372,1.456753,26.79597,0.38,16.94586,501.7053,337.3774,28.10524,5.627186,263,74,4295,0.97,1.397144,1.046875,1.285392,-0.00390625,0,0,0,0,0,0,0,0,0,0,0,0,13.4,0,0,0,0,0,0,0,0,0,40,32,0,0,0,0,0,0,0,3,0,0,0,0,0,0,0,0,0,0,0,0,0,0,0,0,0,0,0,0,0,0,0,0,0,0,0,0,0,0,0,0,0,0,0,0,0,0,0,0,0,0,0,0,0,0,0,13.4,0.04175072,0,20.25859,0.1790695,0.008825162,18.6558,0.7316301,2,9.84395
44.003,12.42742,5.621053,21.97326,30.97752,-7.991196,-34.72913,53,55,1.233672,10.71175,15.53428,0.08984015,755.8268,4.199038,0.3319595,1.150706,0.8554301,-0.5949906,-33.40497,-46.85636,18.19082,-23.77248,68.23529,1.35,1583.5,28,23,0,43.52941,44.31372,1.456753,26.79597,0.38,16.94586,501.7053,337.3716,28.10524,5.627186,263,74,4295,0.97,1.397144,1.046875,1.285392,-0.00390625,0,0,0,0,0,0,0,0,0,0,0,0,13.4,0,0,0,0,0,0,0,0,0,40,32,0,0,0,0,0,0,0,3,0,0,0,0,0,0,0,0,0,0,0,0,0,0,0,0,0,0,0,0,0,0,0,0,0,0,0,0,0,0,0,0,0,0,0,0,0,0,0,0,0,0,0,0,0,0,0,13.4,0.04175072,0,20.25859,0.1790695,0.008825162,18.6558,0.7316301,2,9.84395
45.003,18.01976,7.898881,21.9835,1.499908,66.25418,-30.42688,53,55,1.154052,11.44293,18.01976,0.1000821,732.4908,5.90062,1.136785,0.3753808,-0.5611323,-1.45633,-36.4565,-55.08883,9.615763,-7.993805,80,1.28,2083,28,23,0,43.92157,44.31372,1.992557,33.42081,0.31,23.81286,518.2009,337.716,27.2375,5.629263,263,74,4295,0.97,1.447896,1.097656,1.486936,-0.00390625,0,0,0,0,0,0,0,0,0,0,0,0,13.4,0,0,0,0,0,0,0,0,0,40,32,0,0,0,0,0,0,0,3,0,0,0,0,0,0,0,0,0,0,0,0,0,0,0,0,0,0,0,0,0,0,0,0,0,0,0,0,0,0,0,0,0,0,0,0,0,0,0,0,0,0,0,0,0,0,0,13.1,0.1849426,0,20.99449,0.1931338,0.009831249,19.26918,0.7617518,2,9.84395
46.003,18.01976,7.898881,21.9835,-20.80072,5.750656,24.70078,53,55,1.154052,11.44293,18.01976,0.1000821,732.4908,5.90062,1.266401,-0.5046734,2.451604,-0.04590656,-45.43552,-53.01958,1.479675,-0.7731018,80,1.28,2083,28,23,0,43.92157,44.31372,1.992557,33.42081,0.31,23.81286,518.2009,337.3991,27.2375,5.629263,263,74,4295,0.97,1.447896,1.097656,1.486936,-0.00390625,0,0,0,0,0,0,0,0,0,0,0,0,13.4,0,0,0,0,0,0,0,0,0,40,32,0,0,0,0,0,0,0,3,0,0,0,0,0,0,0,0,0,0,0,0,0,0,0,0,0,0,0,0,0,0,0,0,0,0,0,0,0,0,0,0,0,0,0,0,0,0,0,0,0,0,0,0,0,0,0,13.1,0.1849426,0,20.99449,0.1931338,0.009831249,19.26918,0.7617518,2,9.84395
47.004,21.12662,6.216766,21.99189,-12.75882,-18.78691,6.740814,53,55,1.103269,13.03661,21.12662,0.1084727,491.7227,4.644047,1.242746,1.059551,-1.44031,4.793755,-22.40458,-61.11791,12.74608,-6.047028,66.27451,1.21,1439,28,23,0,39.21569,39.21569,1.016852,21.82548,0.24,18.74177,516.3705,337.5331,18.28459,5.630755,263,74,4295,0.97,1.33712,0.90625,1.265384,-0.00390625,0,0,0,0,0,0,0,0,0,0,0,0,13.4,0,0,0,0,0,0,0,0,0,40,32,0,0,0,0,0,0,0,3,0,0,0,0,0,0,0,0,0,0,0,0,0,0,0,0,0,0,0,0,0,0,0,0,0,0,0,0,0,0,0,0,0,0,0,0,0,0,0,0,0,0,0,0,0,0,0,13.1,0.2492317,0,19.38824,0.2100677,0.01065548,19.20112,0.7907675,2,9.84395
48.005,21.12662,6.216766,21.99189,21.66005,18.93256,-2.764389,53,55,1.103269,13.03661,21.12662,0.1084727,491.7227,4.644047,-0.421055,-0.1563292,-0.4213078,4.619755,-26.24515,-62.09639,11.3858,-4.938812,66.27451,1.21,1439,28,23,0,39.21569,39.21569,1.016852,21.82548,0.24,18.74177,516.3705,337.9219,18.28459,5.630755,263,74,4295,0.97,1.33712,0.90625,1.265384,-0.00390625,0,0,0,0,0,0,0,0,0,0,0,0,13.4,0,0,0,0,0,0,0,0,0,40,32,0,0,0,0,0,0,0,3,0,0,0,0,0,0,0,0,0,0,0,0,0,0,0,0,0,0,0,0,0,0,0,0,0,0,0,0,0,0,0,0,0,0,0,0,0,0,0,0,0,0,0,0,0,0,0,13.1,0.2492317,0,19.38824,0.2100677,0.01065548,19.20112,0.7907675,2,9.84395
49.004,23.6121,5.522605,21.99907,9.358292,-6.155899,-19.87677,53,55,0.7059104,10.63836,23.6121,0.1156508,390.8364,4.125495,1.314197,0.2316409,0.8368478,3.954159,-29.20338,-63.0649,13.32414,-7.5522,76.86275,1.18,1566.5,26,23,0,39.21569,39.60784,1.578371,23.17022,0.21,16.64907,506.1885,337.71,14.53316,5.63188,263,74,4295,0.97,1.997872,1.839844,1.741672,-0.00390625,0,0,0,0,0,0,0,0,0,0,0,0,13.4,0,0,0,0,0,0,0,0,0,40,32,0,0,0,0,0,0,0,4,0,0,0,0,0,0,0,0,0,0,0,0,0,0,0,0,0,0,0,0,0,0,0,0,0,0,0,0,0,0,0,0,0,0,0,0,0,0,0,0,0,0,0,0,0,0,0,13.2,0.233053,0,28.96914,0.2284738,0.01136059,18.8225,0.826463,2,9.84395
50.004,23.6121,5.522605,21.99907,-11.96339,-0.3562775,23.70413,53,55,0.7059104,10.63836,23.6121,0.1156508,390.8364,4.125495,-0.4852733,0.5094102,0.8482327,2.974726,-29.93175,-62.71191,11.56108,-6.408142,76.86275,1.18,1566.5,26,23,0,39.21569,39.60784,1.578371,23.17022,0.21,16.64907,506.1885,337.946,14.53316,5.63188,263,74,4295,0.97,1.997872,1.839844,1.741672,-0.00390625,0,0,0,0,0,0,0,0,0,0,0,0,13.4,0,0,0,0,0,0,0,0,0,40,32,0,0,0,0,0,0,0,4,0,0,0,0,0,0,0,0,0,0,0,0,0,0,0,0,0,0,0,0,0,0,0,0,0,0,0,0,0,0,0,0,0,0,0,0,0,0,0,0,0,0,0,0,0,0,0,13.2,0.233053,0,28.96914,0.2284738,0.01136059,18.8225,0.826463,2,9.84395
51.004,25.47622,5.516281,22.00794,40.21791,82.44415,9.079117,53,55,0.5111893,9.762993,25.47622,0.1245223,361.8238,4.120771,-0.7998475,0.6119401,0.6986602,-7.369005,-26.82504,-53.75594,3.301048,-16.99026,34.11765,1,1705,26,23,0,37.64706,34.5098,1.240448,21.51473,0.03,16.63001,491.9618,337.2062,13.45433,5.633195,263,74,4295,0.97,0.899872,-0.71875,0.902312,-0.00390625,0,0,0,0,0,0,0,0,0,0,0,0,13.4,0,0,0,0,0,0,0,0,0,40,32,0,0,0,0,0,0,0,4,0,0,0,0,0,0,0,0,0,0,0,0,0,0,0,0,0,0,0,0,0,0,0,0,0,0,0,0,0,0,0,0,0,0,0,0,0,0,0,0,0,0,0,0,0,0,0,13.2,0.1941697,0,13.04814,0.2531137,0.01223205,18.29349,0.8558406,2,9.84395
52.004,25.47622,5.516281,22.00794,-7.213821,0.2000885,0.7029419,53,55,0.5111893,9.762993,25.47622,0.1245223,361.8238,4.120771,0.2627453,0.06991182,0.248195,-0.06367564,-28.05418,-56.18816,10.21606,-13.43248,34.11765,1,1705,26,23,0,37.64706,34.5098,1.240448,21.51473,0.03,16.63001,491.9618,337.6842,13.45433,5.633195,263,74,4295,0.97,0.899872,-0.71875,0.902312,-0.00390625,0,0,0,0,0,0,0,0,0,0,0,0,13.4,0,0,0,0,0,0,0,0,0,40,32,0,0,0,0,0,0,0,4,0,0,0,0,0,0,0,0,0,0,0,0,0,0,0,0,0,0,0,0,0,0,0,0,0,0,0,0,0,0,0,0,0,0,0,0,0,0,0,0,0,0,0,0,0,0,0,13.2,0.1941697,0,13.04814,0.2531137,0.01223205,18.29349,0.8558406,2,9.84395
53.004,27.34033,2.698202,22.01144,5.577545,-12.10652,13.72169,53,55,0.4324125,4.524635,27.34033,0.1280249,164.9136,2.01561,0.01177964,0.5057137,0.2648703,-1.525875,-26.1527,-18.54359,-4.613285,-14.77933,40,1,1799.5,26,23,0,37.2549,37.2549,1.255884,22.70719,0.03,8.134305,466.6507,337.9305,6.132272,5.633268,263,74,4295,0.97,0.92232,-0.5664063,0.889136,-0.00390625,0,0,0,0,0,0,0,0,0,0,0,0,13.4,0,0,0,0,0,0,0,0,0,40,32,0,0,0,0,0,0,0,4,0,0,0,0,0,0,0,0,0,0,0,0,0,0,0,0,0,0,0,0,0,0,0,0,0,0,0,0,0,0,0,0,0,0,0,0,0,0,0,0,0,0,0,0,0,0,0,13.1,0.2421345,0,13.37364,0.2743484,0.01257612,17.3523,0.8855692,2,9.84395
54.004,28.58307,2.058206,22.01421,-23.5033,-13.70844,0.1522522,53,55,0.393951,3.326638,28.58307,0.1307962,120.3277,1.537521,0.588567,0.4472639,-1.05814,-1.824411,-27.66126,-16.02047,-5.790028,-13.34055,32.54902,0.83,1867,26,23,0,31.76471,31.37255,0.7742041,19.55393,-0.14,6.204902,439.8324,337.7031,4.474358,5.633085,263,74,4295,0.97,4.503264,2.867188,2.597136,-0.00390625,0,0,0,0,0,0,0,0,0,0,0,0,13.4,0,0,0,0,0,0,0,0,0,40,32,0,0,0,0,0,0,0,3,0,0,0,0,0,0,0,0,0,0,0,0,0,0,0,0,0,0,0,0,0,0,0,0,0,0,0,0,0,0,0,0,0,0,0,0,0,0,0,0,0,0,0,0,0,0,0,13.1,0.3657357,0,65.29733,0.2973774,0.01284835,16.35507,0.9145895,2,9.84395
55.006,28.58307,2.058206,22.01421,0.3603821,-12.57706,11.17169,53,55,0.393951,3.326638,28.58307,0.1307962,120.3277,1.537521,-0.1688257,0.8389663,-0.8720424,-2.50155,-27.86772,-15.77155,-5.80545,-13.41344,32.54902,0.83,1867,26,23,0,31.76471,31.37255,0.7742041,19.55393,-0.14,6.204902,439.8324,337.6512,4.474358,5.633085,263,74,4295,0.97,4.503264,2.867188,2.597136,-0.00390625,0,0,0,0,0,0,0,0,0,0,0,0,13.4,0,0,0,0,0,0,0,0,0,40,32,0,0,0,0,0,0,0,3,0,0,0,0,0,0,0,0,0,0,0,0,0,0,0,0,0,0,0,0,0,0,0,0,0,0,0,0,0,0,0,0,0,0,0,0,0,0,0,0,0,0,0,0,0,0,0,13.1,0.3657357,0,65.29733,0.2973774,0.01284835,16.35507,0.9145895,2,9.84395
56.004,28.58307,2.018733,22.01683,6.766434,8.42984,-13.43674,53,55,0.1541269,4.707665,28.58307,0.1334192,118.02,1.508034,-0.3435877,-0.4980062,0.554163,-3.134264,-27.76308,-14.81138,-6.675045,-12.65521,69.41177,1.07,1294,24,23,0,36.07843,36.47059,0.899446,17.47148,0.1,6.085902,417.4556,337.7457,4.388546,5.632895,263,74,4295,0.97,1.313696,0.875,1.301984,-0.00390625,0,0,0,0,0,0,0,0,0,0,0,0,13.4,0,0,0,0,0,0,0,0,0,40,32,0,0,0,0,0,0,0,3,0,0,0,0,0,0,0,0,0,0,0,0,0,0,0,0,0,0,0,0,0,0,0,0,0,0,0,0,0,0,0,0,0,0,0,0,0,0,0,0,0,0,0,0,0,0,0,13.1,0.5247212,0,19.04859,0.319601,0.01310601,15.52299,0.9495872,2,9.84395
57.004,28.58307,2.018733,22.01683,8.505432,5.534393,4.50708,53,55,0.1541269,4.707665,28.58307,0.1334192,118.02,1.508034,-1.66402,-0.5444948,-0.7211037,-3.853048,-27.60786,-14.93134,-8.486116,-11.2464,69.41177,1.07,1294,24,23,0,36.07843,36.47059,0.899446,17.47148,0.1,6.085902,417.4556,337.3162,4.388546,5.632895,263,74,4295,0.97,1.313696,0.875,1.301984,-0.00390625,0,0,0,0,0,0,0,0,0,0,0,0,13.4,0,0,0,0,0,0,0,0,0,40,32,0,0,0,0,0,0,0,3,0,0,0,0,0,0,0,0,0,0,0,0,0,0,0,0,0,0,0,0,0,0,0,0,0,0,0,0,0,0,0,0,0,0,0,0,0,0,0,0,0,0,0,0,0,0,0,13.1,0.5247212,0,19.04859,0.319601,0.01310601,15.52299,0.9495872,2,9.84395
58.005,30.44719,4.518329,22.02394,-20.06953,8.49202,-6.265945,53,55,0.1987917,10.04752,30.44719,0.1405272,247.9799,3.375281,1.099301,-0.2619313,1.441219,-2.591669,-26.91645,-15.49875,-5.398367,-13.40865,74.90196,1.07,1357,24,23,0,34.90196,35.29412,1.352931,18.44542,0.1,13.62147,403.6633,337.3571,9.221073,5.633607,263,74,4295,0.97,1.357616,0.9492188,1.339072,-0.00390625,0,0,0,0,0,0,0,0,0,0,0,0,13.4,0,0,0,0,0,0,0,0,0,40,32,0,0,0,0,0,0,0,3,0,0,0,0,0,0,0,0,0,0,0,0,0,0,0,0,0,0,0,0,0,0,0,0,0,0,0,0,0,0,0,0,0,0,0,0,0,0,0,0,0,0,0,0,0,0,0,13.1,0.6881746,0,19.68543,0.3481299,0.01380425,15.01012,0.9785821,2,9.84395
59.005,30.44719,4.518329,22.02394,5.561722,-3.753555,15.84419,53,55,0.1987917,10.04752,30.44719,0.1405272,247.9799,3.375281,-1.426407,-0.2078841,-0.9877172,-5.447642,-26.01584,-13.1688,-4.994255,-16.84196,74.90196,1.07,1357,24,23,0,34.90196,35.29412,1.352931,18.44542,0.1,13.62147,403.6633,337.1905,9.221073,5.633607,263,74,4295,0.97,1.357616,0.9492188,1.339072,-0.00390625,0,0,0,0,0,0,0,0,0,0,0,0,13.4,0,0,0,0,0,0,0,0,0,40,32,0,0,0,0,0,0,0,3,0,0,0,0,0,0,0,0,0,0,0,0,0,0,0,0,0,0,0,0,0,0,0,0,0,0,0,0,0,0,0,0,0,0,0,0,0,0,0,0,0,0,0,0,0,0,0,13.1,0.6881746,0,19.68543,0.3481299,0.01380425,15.01012,0.9785821,2,9.84395
60.005,31.06856,4.717865,22.03007,-1.974762,-6.90889,0.1254272,53,55,0.2782874,10.26432,31.06856,0.146651,253.7523,3.524338,0.1918176,-0.5975364,0.08743147,-3.378207,-27.81839,-14.74051,-4.420286,-15.77074,72.54902,0.99,1387,24,23,0,32.94118,33.33333,1.248353,17.44361,0.02,14.22301,393.8043,337.2732,9.435721,5.634233,282,74,4295,0.97,1.44692,1.140625,1.352248,-0.00390625,0,0,0,0,0,0,0,0,0,0,0,0,13.06,0,0,0,0,0,0,0,0,0,49,33,0,0,0,0,0,0,0,3,0,0,0,0,0,0,0,0,0,0,0,0,0,0,0,0,0,0,0,0,0,0,0,0,0,0,0,0,0,0,0,0,0,0,0,0,0,0,0,0,0,0,0,0,0,0,0,13.1,0.5449579,0,20.98034,0.3723955,0.01440579,14.64352,1.016364,2,9.84395
61.005,31.06856,4.717865,22.03007,-6.385391,9.90889,-19.82817,53,55,0.2782874,10.26432,31.06856,0.146651,253.7523,3.524338,0.7924098,1.800246,-0.1929023,-3.673874,-24.38163,-11.51854,-8.350792,-15.4548,72.54902,0.99,1387,24,23,0,32.94118,33.33333,1.248353,17.44361,0.02,14.22301,393.8043,337.1833,9.435721,5.634233,282,74,4295,0.97,1.44692,1.140625,1.352248,-0.00390625,0,0,0,0,0,0,0,0,0,0,0,0,13.06,0,0,0,0,0,0,0,0,0,49,33,0,0,0,0,0,0,0,3,0,0,0,0,0,0,0,0,0,0,0,0,0,0,0,0,0,0,0,0,0,0,0,0,0,0,0,0,0,0,0,0,0,0,0,0,0,0,0,0,0,0,0,0,0,0,0,13.1,0.5449579,0,20.98034,0.3723955,0.01440579,14.64352,1.016364,2,9.84395
62.007,31.68993,3.922008,22.03664,-4.515472,-5.642517,4.860855,53,55,0.1413424,8.456615,31.68993,0.1532293,206.8106,2.929817,0.6286772,0.7694395,-0.1314469,-3.978386,-25.22555,-15.84892,-5.845686,-16.12253,76.86275,0.86,1399.5,24,23,0,27.45098,27.45098,1.048252,15.2896,-0.11,11.82373,379.0838,337.1935,7.690206,5.634683,282,74,4295,0.97,1.41764,1.0625,1.279048,-0.00390625,0,0,0,0,0,0,0,0,0,0,0,0,13.06,0,0,0,0,0,0,0,0,0,49,33,0,0,0,0,0,0,0,3,0,0,0,0,0,0,0,0,0,0,0,0,0,0,0,0,0,0,0,0,0,0,0,0,0,0,0,0,0,0,0,0,0,0,0,0,0,0,0,0,0,0,0,0,0,0,0,13.1,0.4697087,0,20.55578,0.4042095,0.01505199,14.09614,1.045009,2,9.84395
63.005,31.68993,3.922008,22.03664,-2.792419,-3.439926,-5.738968,53,55,0.1413424,8.456615,31.68993,0.1532293,206.8106,2.929817,0.9441988,-0.03354194,0.728555,-1.739623,-26.20315,-18.8159,-2.985924,-16.86613,76.86275,0.86,1399.5,24,23,0,27.45098,27.45098,1.048252,15.2896,-0.11,11.82373,379.0838,337.1022,7.690206,5.634683,282,74,4295,0.97,1.41764,1.0625,1.279048,-0.00390625,0,0,0,0,0,0,0,0,0,0,0,0,13.06,0,0,0,0,0,0,0,0,0,49,33,0,0,0,0,0,0,0,3,0,0,0,0,0,0,0,0,0,0,0,0,0,0,0,0,0,0,0,0,0,0,0,0,0,0,0,0,0,0,0,0,0,0,0,0,0,0,0,0,0,0,0,0,0,0,0,13.1,0.4697087,0,20.55578,0.4042095,0.01505199,14.09614,1.045009,2,9.84395
64.005,31.68993,4.053971,22.04194,2.092102,-18.41757,9.182449,53,55,0.06184678,8.744279,31.68993,0.1585292,213.7692,3.028397,0.4721898,1.602131,-1.487349,-3.502889,-25.90416,-15.13134,-6.108963,-15.56003,78.43137,0.88,1399,24,23,0,28.62745,28.62745,1.013578,15.63959,-0.09,12.22156,369.681,337.1146,7.948957,5.635084,282,74,4295,0.97,1.369328,0.9765625,1.303936,-0.00390625,0,0,0,0,0,0,0,0,0,0,0,0,13.06,0,0,0,0,0,0,0,0,0,49,33,0,0,0,0,0,0,0,3,0,0,0,0,0,0,0,0,0,0,0,0,0,0,0,0,0,0,0,0,0,0,0,0,0,0,0,0,0,0,0,0,0,0,0,0,0,0,0,0,0,0,0,0,0,0,0,13.1,0.3265168,0,19.85526,0.4288269,0.01557261,13.7465,1.080297,2,9.84395
65.005,31.68993,4.053971,22.04194,-2.116898,13.83029,-4.223862,53,55,0.06184678,8.744279,31.68993,0.1585292,213.7692,3.028397,0.566317,0.7873515,-0.6334748,-2.871295,-25.94508,-14.96978,-6.090969,-15.48183,78.43137,0.88,1399,24,23,0,28.62745,28.62745,1.013578,15.63959,-0.09,12.22156,369.681,337.1679,7.948957,5.635084,282,74,4295,0.97,1.369328,0.9765625,1.303936,-0.00390625,0,0,0,0,0,0,0,0,0,0,0,0,13.06,0,0,0,0,0,0,0,0,0,49,33,0,0,0,0,0,0,0,3,0,0,0,0,0,0,0,0,0,0,0,0,0,0,0,0,0,0,0,0,0,0,0,0,0,0,0,0,0,0,0,0,0,0,0,0,0,0,0,0,0,0,0,0,0,0,0,13.1,0.3265168,0,19.85526,0.4288269,0.01557261,13.7465,1.080297,2,9.84395
66.005,32.3113,4.315764,22.04872,-31.76474,1.675919,-21.61664,53,55,0.06609178,9.216722,32.3113,0.1653003,223.1973,3.223961,0.4288599,0.2355157,-1.135906,-1.393394,-26.95574,-17.11534,-5.289244,-13.46082,90.19608,1,1413,24,23,0,32.94118,32.94118,1.057829,17.95011,0.03,13.01079,359.9892,337.1053,8.29954,5.635639,282,74,4295,0.97,1.352248,0.9453125,1.321016,-0.00390625,0,0,0,0,0,0,0,0,0,0,0,0,13.06,0,0,0,0,0,0,0,0,0,49,33,0,0,0,0,0,0,0,3,0,0,0,0,0,0,0,0,0,0,0,0,0,0,0,0,0,0,0,0,0,0,0,0,0,0,0,0,0,0,0,0,0,0,0,0,0,0,0,0,0,0,0,0,0,0,0,13.1,0.2622733,0,19.6076,0.4591812,0.01623775,13.38612,1.108952,2,9.84395
67.005,32.3113,4.315764,22.04872,-4.654449,7.457398,-2.871002,53,55,0.06609178,9.216722,32.3113,0.1653003,223.1973,3.223961,0.1242733,0.4257325,0.2711882,-4.032097,-26.75019,-15.145,-10.76025,-10.48958,90.19608,1,1413,24,23,0,32.94118,32.94118,1.057829,17.95011,0.03,13.01079,359.9892,337.263,8.29954,5.635639,282,74,4295,0.97,1.352248,0.9453125,1.321016,-0.00390625,0,0,0,0,0,0,0,0,0,0,0,0,13.06,0,0,0,0,0,0,0,0,0,49,33,0,0,0,0,0,0,0,3,0,0,0,0,0,0,0,0,0,0,0,0,0,0,0,0,0,0,0,0,0,0,0,0,0,0,0,0,0,0,0,0,0,0,0,0,0,0,0,0,0,0,0,0,0,0,0,13.1,0.2622733,0,19.6076,0.4591812,0.01623775,13.38612,1.108952,2,9.84395
68.005,32.3113,5.52808,22.05588,0.1866913,5.456619,-5.219894,53,55,0.06609178,11.66947,32.3113,0.172461,285.8944,4.129585,-0.7267166,0.2933418,1.413442,-3.405322,-27.19939,-16.57416,-8.603745,-11.50085,78.03922,0.98,1429.5,24,23,0,32.15686,32.15686,1.166567,17.79652,0.01,16.66558,356.0302,337.0999,10.63092,5.636492,282,74,4295,0.97,1.358104,0.9570313,1.296128,-0.00390625,0,0,0,0,0,0,0,0,0,0,0,0,13.06,0,0,0,0,0,0,0,0,0,49,33,0,0,0,0,0,0,0,3,0,0,0,0,0,0,0,0,0,0,0,0,0,0,0,0,0,0,0,0,0,0,0,0,0,0,0,0,0,0,0,0,0,0,0,0,0,0,0,0,0,0,0,0,0,0,0,13.1,0.1985531,0,19.69251,0.4844,0.01694116,13.2389,1.139103,2,9.84395
69.005,32.3113,5.52808,22.05588,3.008194,-8.142639,-0.5887909,53,55,0.06609178,11.66947,32.3113,0.172461,285.8944,4.129585,-0.3403721,-0.7003019,-2.306253,-3.106842,-26.85108,-16.33265,-8.425463,-13.15262,78.03922,0.98,1429.5,24,23,0,32.15686,32.15686,1.166567,17.79652,0.01,16.66558,356.0302,337.329,10.63092,5.636492,282,74,4295,0.97,1.358104,0.9570313,1.296128,-0.00390625,0,0,0,0,0,0,0,0,0,0,0,0,13.06,0,0,0,0,0,0,0,0,0,49,33,0,0,0,0,0,0,0,3,0,0,0,0,0,0,0,0,0,0,0,0,0,0,0,0,0,0,0,0,0,0,0,0,0,0,0,0,0,0,0,0,0,0,0,0,0,0,0,0,0,0,0,0,0,0,0,13.1,0.1985531,0,19.69251,0.4844,0.01694116,13.2389,1.139103,2,9.84395
70.005,32.93267,4.712183,22.06222,33.9144,-7.872726,23.3166,53,55,0.07734305,9.871199,32.93267,0.1788021,239.1007,3.520094,-0.07245152,-0.4177029,0.4760908,-2.856147,-31.15924,-18.50138,-11.16229,-7.011597,79.60784,0.95,1440.5,24,23,0,32.15686,31.76471,1.136031,17.38448,-0.02,14.20588,350.0177,337.53,8.890904,5.637088,282,74,4295,0.97,1.404464,1.050781,1.313696,-0.00390625,0,0,0,0,0,0,0,0,0,0,0,0,13.06,0,0,0,0,0,0,0,0,0,49,33,0,0,0,0,0,0,0,3,0,0,0,0,0,0,0,0,0,0,0,0,0,0,0,0,0,0,0,0,0,0,0,0,0,0,0,0,0,0,0,0,0,0,0,0,0,0,0,0,0,0,0,0,0,0,0,13.1,0.175504,0,20.36473,0.5108374,0.01756406,13.01532,1.168125,2,9.84395
71.005,32.93267,4.712183,22.06222,10.33563,0.2684479,3.027557,53,55,0.07734305,9.871199,32.93267,0.1788021,239.1007,3.520094,1.396948,0.3396821,0.466422,-0.1259341,-29.59843,-17.69732,-6.330927,-11.30244,79.60784,0.95,1440.5,24,23,0,32.15686,31.76471,1.136031,17.38448,-0.02,14.20588,350.0177,337.519,8.890904,5.637088,282,74,4295,0.97,1.404464,1.050781,1.313696,-0.00390625,0,0,0,0,0,0,0,0,0,0,0,0,13.06,0,0,0,0,0,0,0,0,0,49,33,0,0,0,0,0,0,0,3,0,0,0,0,0,0,0,0,0,0,0,0,0,0,0,0,0,0,0,0,0,0,0,0,0,0,0,0,0,0,0,0,0,0,0,0,0,0,0,0,0,0,0,0,0,0,0,13.1,0.175504,0,20.36473,0.5108374,0.01756406,13.01532,1.168125,2,9.84395
72.006,32.93267,4.296618,22.06782,-3.06752,9.906386,-5.576538,53,55,0.07734305,8.99442,32.93267,0.1843997,218.0146,3.209659,-0.2792565,-0.08297279,-0.1555954,-2.609671,-29.1601,-16.51546,-9.962801,-9.677597,82.74509,0.88,1441.5,24,23,0,20.39216,20,1.00768,16.1147,-0.09,12.95307,343.7566,337.747,8.106821,5.637527,282,74,4295,0.97,2.645936,2.203125,2.236504,-0.00390625,0,0,0,0,0,0,0,0,0,0,0,0,13.06,0,0,0,0,0,0,0,0,0,49,33,0,0,0,0,0,0,0,3,0,0,0,0,0,0,0,0,0,0,0,0,0,0,0,0,0,0,0,0,0,0,0,0,0,0,0,0,0,0,0,0,0,0,0,0,0,0,0,0,0,0,0,0,0,0,0,13.1,0.1275392,0,38.36607,0.5364252,0.01811392,12.78251,1.203203,2,9.84395
73.006,32.3113,4.768678,22.07529,1.602875,10.28377,-3.004578,53,55,-0.06621002,10.11951,32.93267,0.1918706,246.6206,3.562297,0.3900705,0.3232835,1.076568,-2.356784,-29.5319,-18.06477,-8.276114,-8.868256,72.54902,0.94,1422,24,23,0,29.80392,30.58824,1.075242,16.98057,-0.03,14.3762,338.5601,338.1287,9.170527,5.638262,282,74,4295,0.97,1.305888,0.8476563,1.299544,-0.00390625,0,0,0,0,0,0,0,0,0,0,0,0,13.06,0,0,0,0,0,0,0,0,0,49,33,0,0,0,0,0,0,0,3,0,0,0,0,0,0,0,0,0,0,0,0,0,0,0,0,0,0,0,0,0,0,0,0,0,0,0,0,0,0,0,0,0,0,0,0,0,0,0,0,0,0,0,0,0,0,0,13.1,0.08347179,0,18.93538,0.5667254,0.0188478,12.58928,1.23191,2,9.84395
74.006,32.3113,4.768678,22.07529,-24.19745,-4.566345,-20.16457,53,55,-0.06621002,10.11951,32.93267,0.1918706,246.6206,3.562297,1.419347,0.5450542,0.6798255,0.3060643,-29.8481,-18.15965,-5.17552,-10.04877,72.54902,0.94,1422,24,23,0,29.80392,30.58824,1.075242,16.98057,-0.03,14.3762,338.5601,337.8372,9.170527,5.638262,282,74,4295,0.97,1.305888,0.8476563,1.299544,-0.00390625,0,0,0,0,0,0,0,0,0,0,0,0,13.06,0,0,0,0,0,0,0,0,0,49,33,0,0,0,0,0,0,0,3,0,0,0,0,0,0,0,0,0,0,0,0,0,0,0,0,0,0,0,0,0,0,0,0,0,0,0,0,0,0,0,0,0,0,0,0,0,0,0,0,0,0,0,0,0,0,0,13.1,0.08347179,0,18.93538,0.5667254,0.0188478,12.58928,1.23191,2,9.84395
75.006,32.3113,4.181068,22.08071,-5.461594,4.751373,-6.653137,53,55,-0.06621002,8.822918,32.93267,0.1972897,216.2313,3.123341,-0.673996,0.324379,-0.6394355,-2.055488,-29.70222,-17.50567,-7.234526,-10.53479,80,0.93,1430,24,23,0,30.58824,30.19608,1.089987,16.89444,-0.04,12.60472,333.2886,338.0026,8.04051,5.638669,282,74,4295,0.97,1.353712,0.9414063,1.270752,-0.00390625,0,0,0,0,0,0,0,0,0,0,0,0,13.06,0,0,0,0,0,0,0,0,0,49,33,0,0,0,0,0,0,0,3,0,0,0,0,0,0,0,0,0,0,0,0,0,0,0,0,0,0,0,0,0,0,0,0,0,0,0,0,0,0,0,0,0,0,0,0,0,0,0,0,0,0,0,0,0,0,0,13.1,0.08347179,0,19.62882,0.5919487,0.01938013,12.39326,1.26234,2,9.84395
76.006,32.3113,4.181068,22.08071,0.5089722,0.5798035,-2.414841,53,55,-0.06621002,8.822918,32.93267,0.1972897,216.2313,3.123341,-0.7681953,-0.3152817,1.858636,-2.217916,-30.32372,-17.82309,-7.822714,-9.603134,80,0.93,1430,24,23,0,30.58824,30.19608,1.089987,16.89444,-0.04,12.60472,333.2886,338.3912,8.04051,5.638669,282,74,4295,0.97,1.353712,0.9414063,1.270752,-0.00390625,0,0,0,0,0,0,0,0,0,0,0,0,13.06,0,0,0,0,0,0,0,0,0,49,33,0,0,0,0,0,0,0,3,0,0,0,0,0,0,0,0,0,0,0,0,0,0,0,0,0,0,0,0,0,0,0,0,0,0,0,0,0,0,0,0,0,0,0,0,0,0,0,0,0,0,0,0,0,0,0,13.1,0.08347179,0,19.62882,0.5919487,0.01938013,12.39326,1.26234,2,9.84395
77.006,32.93267,4.383347,22.0866,-10.31117,-20.86967,13.41931,53,55,0.07723241,9.253003,32.93267,0.2031831,222.4153,3.274447,0.3957922,1.799053,-1.618336,-1.894624,-30.19155,-17.66659,-7.831272,-10.147,82.74509,0.9,1429.5,24,23,0,30.19608,30.58824,1.030493,16.34374,-0.07,13.21453,328.5498,338.5379,8.270459,5.639149,282,74,4295,0.97,1.30784,0.8398438,1.31028,-0.00390625,0,0,0,0,0,0,0,0,0,0,0,0,13.06,0,0,0,0,0,0,0,0,0,49,33,0,0,0,0,0,0,0,3,0,0,0,0,0,0,0,0,0,0,0,0,0,0,0,0,0,0,0,0,0,0,0,0,0,0,0,0,0,0,0,0,0,0,0,0,0,0,0,0,0,0,0,0,0,0,0,13.1,0.05915993,0,18.96368,0.618424,0.01995904,12.21705,1.291086,2,9.84395
78.006,32.93267,4.383347,22.0866,-5.046906,6.646057,-12.23642,53,55,0.07723241,9.253003,32.93267,0.2031831,222.4153,3.274447,-0.6236367,0.04262357,-2.105006,-4.445181,-29.33684,-18.22238,-8.943979,-9.150879,82.74509,0.9,1429.5,24,23,0,30.19608,30.58824,1.030493,16.34374,-0.07,13.21453,328.5498,338.559,8.270459,5.639149,282,74,4295,0.97,1.30784,0.8398438,1.31028,-0.00390625,0,0,0,0,0,0,0,0,0,0,0,0,13.06,0,0,0,0,0,0,0,0,0,49,33,0,0,0,0,0,0,0,3,0,0,0,0,0,0,0,0,0,0,0,0,0,0,0,0,0,0,0,0,0,0,0,0,0,0,0,0,0,0,0,0,0,0,0,0,0,0,0,0,0,0,0,0,0,0,0,13.1,0.05915993,0,18.96368,0.618424,0.01995904,12.21705,1.291086,2,9.84395
79.006,32.93267,4.383347,22.0866,1.541,3.246506,3.05867,53,55,0.07723241,9.253003,32.93267,0.2031831,222.4153,3.274447,0.1486075,0.6923974,-0.1053185,-2.578143,-29.1069,-17.68175,-8.654583,-10.23183,82.74509,0.9,1429.5,24,23,0,30.19608,30.58824,1.030493,16.34374,-0.07,13.21453,328.5498,338.7452,8.270459,5.639149,282,74,4295,0.97,1.30784,0.8398438,1.31028,-0.00390625,0,0,0,0,0,0,0,0,0,0,0,0,13.06,0,0,0,0,0,0,0,0,0,49,33,0,0,0,0,0,0,0,3,0,0,0,0,0,0,0,0,0,0,0,0,0,0,0,0,0,0,0,0,0,0,0,0,0,0,0,0,0,0,0,0,0,0,0,0,0,0,0,0,0,0,0,0,0,0,0,13.1,0.05915993,0,18.96368,0.618424,0.01995904,12.21705,1.291086,2,9.84395
80.006,32.93267,5.0036,22.09313,2.675735,-2.065018,0.8133087,57,58,0.07723241,10.48531,32.93267,0.2097119,253.8875,3.737788,0.02996576,0.1092361,0.9264252,-1.518569,-29.8321,-17.53129,-7.391466,-10.83902,80,1.01,1440,25,23,0,32.54902,32.54902,1.137683,18.47603,0.04,15.08442,325.6378,338.6702,9.440748,5.639825,302,74,4296,0.97,1.289784,0.796875,1.273192,-0.00390625,0,0,0,0,0,0,0,0,0,0,0,0,13.06,0,0,0,0,0,0,0,0,0,49,35,0,0,0,0,0,0,0,3,0,0,0,0,0,0,0,0,0,0,0,0,0,0,0,0,0,0,0,0,0,0,0,0,0,0,0,0,0,0,0,0,0,0,0,0,0,0,0,0,0,0,0,0,0,0,0,13.1,0.0432608,0,18.70187,0.6440037,0.02060039,12.10876,1.343584,2,9.84395
81.006,32.93267,5.0036,22.09313,-5.862366,0.05479431,-2.946472,57,58,0.07723241,10.48531,32.93267,0.2097119,253.8875,3.737788,0.02064328,-0.3854146,-0.2000038,-1.406127,-29.80578,-18.31356,-6.694164,-10.76396,80,1.01,1440,25,23,0,32.54902,32.54902,1.137683,18.47603,0.04,15.08442,325.6378,338.9163,9.440748,5.639825,302,74,4296,0.97,1.289784,0.796875,1.273192,-0.00390625,0,0,0,0,0,0,0,0,0,0,0,0,13.06,0,0,0,0,0,0,0,0,0,49,35,0,0,0,0,0,0,0,3,0,0,0,0,0,0,0,0,0,0,0,0,0,0,0,0,0,0,0,0,0,0,0,0,0,0,0,0,0,0,0,0,0,0,0,0,0,0,0,0,0,0,0,0,0,0,0,13.1,0.0432608,0,18.70187,0.6440037,0.02060039,12.10876,1.343584,2,9.84395
82.007,32.93267,5.462793,22.10597,-21.11531,4.681793,-10.36981,57,58,2.400857E-15,11.30624,32.93267,0.2225566,277.1874,4.080814,1.316578,0.1481775,-1.373365,-1.514033,-29.46717,-19.32885,-7.432631,-9.494553,76.07843,1.04,1458,25,23,0,33.72549,34.11765,1.279636,19.19803,0.07,16.46876,322.3392,339.2459,10.30715,5.641306,302,74,4296,0.97,1.35176,0.9453125,1.299056,-0.00390625,0,0,0,0,0,0,0,0,0,0,0,0,13.06,0,0,0,0,0,0,0,0,0,49,35,0,0,0,0,0,0,0,3,0,0,0,0,0,0,0,0,0,0,0,0,0,0,0,0,0,0,0,0,0,0,0,0,0,0,0,0,0,0,0,0,0,0,0,0,0,0,0,0,0,0,0,0,0,0,0,13.1,0.03089144,0,19.60052,0.6904421,0.02186214,11.98611,1.372632,2,9.84395
83.007,32.93267,5.462793,22.10597,11.10312,4.839828,1.430542,57,58,2.400857E-15,11.30624,32.93267,0.2225566,277.1874,4.080814,0.307822,-0.6798541,1.029955,-1.228186,-30.295,-19.84487,-7.463312,-9.8479,76.07843,1.04,1458,25,23,0,33.72549,34.11765,1.279636,19.19803,0.07,16.46876,322.3392,338.9812,10.30715,5.641306,302,74,4296,0.97,1.35176,0.9453125,1.299056,-0.00390625,0,0,0,0,0,0,0,0,0,0,0,0,13.06,0,0,0,0,0,0,0,0,0,49,35,0,0,0,0,0,0,0,3,0,0,0,0,0,0,0,0,0,0,0,0,0,0,0,0,0,0,0,0,0,0,0,0,0,0,0,0,0,0,0,0,0,0,0,0,0,0,0,0,0,0,0,0,0,0,0,13.1,0.03089144,0,19.60052,0.6904421,0.02186214,11.98611,1.372632,2,9.84395
84.011,33.55404,4.909985,22.11234,7.75885,19.48581,-8.57753,57,58,0.07982109,10.06545,33.55404,0.2289268,244.5237,3.667856,-0.4501359,-0.8970603,0.02996479,-1.798483,-29.59454,-18.64322,-6.121321,-12.31128,77.64706,1,1472,25,23,0,32.54902,32.54902,1.194498,18.6369,0.03,14.8022,319.4883,339.3466,9.092558,5.641921,302,74,4296,0.97,1.369816,0.9804688,1.313696,-0.00390625,0,0,0,0,0,0,0,0,0,0,0,0,13.06,0,0,0,0,0,0,0,0,0,49,35,0,0,0,0,0,0,0,3,0,0,0,0,0,0,0,0,0,0,0,0,0,0,0,0,0,0,0,0,0,0,0,0,0,0,0,0,0,0,0,0,0,0,0,0,0,0,0,0,0,0,0,0,0,0,0,13.1,0.04685566,0,19.86233,0.7165422,0.0224879,11.8801,1.402699,2,9.84395
85.008,33.55404,4.765774,22.11876,2.09079,-23.06166,14.82787,57,58,0.07982109,9.713731,33.55404,0.2353487,237.3418,3.560127,0.9024636,1.284808,-0.02515255,-0.9578778,-29.67064,-19.39265,-5.901747,-11.61981,78.03922,0.96,1480.5,25,23,0,32.15686,32.15686,1.125187,17.99473,-0.01,14.36744,316.5013,339.0816,8.8255,5.642512,302,74,4296,0.97,1.344928,0.9335938,1.29808,-0.00390625,0,0,0,0,0,0,0,0,0,0,0,0,13.06,0,0,0,0,0,0,0,0,0,49,35,0,0,0,0,0,0,0,3,0,0,0,0,0,0,0,0,0,0,0,0,0,0,0,0,0,0,0,0,0,0,0,0,0,0,0,0,0,0,0,0,0,0,0,0,0,0,0,0,0,0,0,0,0,0,0,13.1,0.03363731,0,19.50146,0.7435946,0.02311873,11.76903,1.431416,2,9.84395
86.008,33.55404,4.765774,22.11876,7.122452,8.56839,-4.568588,57,58,0.07982109,9.713731,33.55404,0.2353487,237.3418,3.560127,-0.1208579,-0.4124616,-1.136646,-2.627759,-29.29977,-17.12397,-8.255482,-10.85693,78.03922,0.96,1480.5,25,23,0,32.15686,32.15686,1.125187,17.99473,-0.01,14.36744,316.5013,339.2882,8.8255,5.642512,302,74,4296,0.97,1.344928,0.9335938,1.29808,-0.00390625,0,0,0,0,0,0,0,0,0,0,0,0,13.06,0,0,0,0,0,0,0,0,0,49,35,0,0,0,0,0,0,0,3,0,0,0,0,0,0,0,0,0,0,0,0,0,0,0,0,0,0,0,0,0,0,0,0,0,0,0,0,0,0,0,0,0,0,0,0,0,0,0,0,0,0,0,0,0,0,0,13.1,0.03363731,0,19.50146,0.7435946,0.02311873,11.76903,1.431416,2,9.84395
87.008,34.17542,4.262207,22.12429,-6.613419,8.016373,-5.482819,57,58,0.07995889,9.713731,34.17542,0.240877,208.4042,3.183953,-0.2247811,-0.1750679,-1.554769,-4.621412,-29.20092,-16.32271,-10.5127,-10.54817,78.03922,0.96,1480.5,25,23,0,32.15686,32.15686,0.9954913,17.99473,-0.01,12.84933,312.7736,339.6025,7.749462,5.642895,302,74,4296,0.97,1.344928,0.9335938,1.29808,-0.00390625,0,0,0,0,0,0,0,0,0,0,0,0,13.06,0,0,0,0,0,0,0,0,0,49,35,0,0,0,0,0,0,0,3,0,0,0,0,0,0,0,0,0,0,0,0,0,0,0,0,0,0,0,0,0,0,0,0,0,0,0,0,0,0,0,0,0,0,0,0,0,0,0,0,0,0,0,0,0,0,0,13.1,0.04962908,0,19.50146,0.7701322,0.02366179,11.63041,1.466695,2,9.84395
88.009,34.17542,4.262207,22.12429,-14.98195,-20.36928,0.7998047,57,58,0.07995889,8.687346,34.17542,0.240877,208.4042,3.183953,1.605222,1.103517,0.7041621,-2.810031,-30.05153,-17.47633,-11.01965,-8.735413,81.56863,0.87,1480.5,24,23,0,28.62745,28.62745,0.9954913,16.30773,-0.1,12.84933,312.7736,339.4544,7.749462,5.642895,302,74,4296,0.97,1.301984,0.8359375,1.184376,-0.00390625,0,0,0,0,0,0,0,0,0,0,0,0,13.06,0,0,0,0,0,0,0,0,0,49,35,0,0,0,0,0,0,0,3,0,0,0,0,0,0,0,0,0,0,0,0,0,0,0,0,0,0,0,0,0,0,0,0,0,0,0,0,0,0,0,0,0,0,0,0,0,0,0,0,0,0,0,0,0,0,0,13.1,0.04962908,0,18.87877,0.7701322,0.02366179,11.63041,1.466695,2,9.84395
89.009,33.55404,4.189964,22.13089,-1.684799,-4.655472,0.709137,57,58,0.01370015,8.598175,34.17542,0.2474729,208.6657,3.129986,0.1696931,1.014491,-0.0614907,-1.358737,-28.62447,-16.35901,-11.57252,-8.072266,87.05882,0.86,1470.5,24,23,0,28.62745,28.62745,0.9331337,16.06528,-0.11,12.63154,308.7334,339.2916,7.759187,5.64336,302,74,4296,0.97,1.316624,0.8671875,1.239032,-0.00390625,0,0,0,0,0,0,0,0,0,0,0,0,13.06,0,0,0,0,0,0,0,0,0,49,35,0,0,0,0,0,0,0,3,0,0,0,0,0,0,0,0,0,0,0,0,0,0,0,0,0,0,0,0,0,0,0,0,0,0,0,0,0,0,0,0,0,0,0,0,0,0,0,0,0,0,0,0,0,0,0,13.1,0.02090873,0,19.09105,0.8015746,0.02430971,11.48018,1.495749,2,9.84395
90.009,33.55404,4.189964,22.13089,-37.7188,-30.73311,16.6123,57,58,0.01370015,8.598175,34.17542,0.2474729,208.6657,3.129986,1.801776,0.3222219,0.3889453,-3.710918,-27.75008,-14.39008,-9.526455,-12.7197,87.05882,0.86,1470.5,24,23,0,28.62745,28.62745,0.9331337,16.06528,-0.11,12.63154,308.7334,339.2371,7.759187,5.64336,302,74,4296,0.97,1.316624,0.8671875,1.239032,-0.00390625,0,0,0,0,0,0,0,0,0,0,0,0,13.06,0,0,0,0,0,0,0,0,0,49,35,0,0,0,0,0,0,0,3,0,0,0,0,0,0,0,0,0,0,0,0,0,0,0,0,0,0,0,0,0,0,0,0,0,0,0,0,0,0,0,0,0,0,0,0,0,0,0,0,0,0,0,0,0,0,0,13.1,0.02090873,0,19.09105,0.8015746,0.02430971,11.48018,1.495749,2,9.84395
91.011,33.55404,4.556069,22.1368,4.425446,5.809586,7.61203,57,58,-0.06625874,9.449054,34.17542,0.2533883,226.8983,3.403474,-0.7830514,-1.068544,1.039661,-4.043067,-28.4046,-15.58845,-10.95646,-11.41431,84.70588,0.86,1455,24,23,0,29.01961,28.62745,0.9571448,15.89594,-0.11,13.73524,306.1578,339.6554,8.437159,5.64386,302,74,4296,0.97,1.35908,0.9609375,1.262456,-0.00390625,0,0,0,0,0,0,0,0,0,0,0,0,13.06,0,0,0,0,0,0,0,0,0,49,35,0,0,0,0,0,0,0,3,0,0,0,0,0,0,0,0,0,0,0,0,0,0,0,0,0,0,0,0,0,0,0,0,0,0,0,0,0,0,0,0,0,0,0,0,0,0,0,0,0,0,0,0,0,0,0,13.1,0.02090873,0,19.70666,0.8276396,0.0248908,11.38441,1.526272,2,9.84395
92.009,33.55404,4.556069,22.1368,4.17598,12.17181,-23.03485,57,58,-0.06625874,9.449054,34.17542,0.2533883,226.8983,3.403474,0.6856658,0.05036896,0.9792258,-2.535745,-28.99938,-18.08161,-7.470846,-11.74336,84.70588,0.86,1455,24,23,0,29.01961,28.62745,0.9571448,15.89594,-0.11,13.73524,306.1578,339.6332,8.437159,5.64386,302,74,4296,0.97,1.35908,0.9609375,1.262456,-0.00390625,0,0,0,0,0,0,0,0,0,0,0,0,13.06,0,0,0,0,0,0,0,0,0,49,35,0,0,0,0,0,0,0,3,0,0,0,0,0,0,0,0,0,0,0,0,0,0,0,0,0,0,0,0,0,0,0,0,0,0,0,0,0,0,0,0,0,0,0,0,0,0,0,0,0,0,0,0,0,0,0,13.1,0.02090873,0,19.70666,0.8276396,0.0248908,11.38441,1.526272,2,9.84395
93.009,33.55404,4.44037,22.14287,22.41951,17.72491,-1.519455,57,58,2.400857E-15,9.244043,34.17542,0.2594515,221.1363,3.317044,0.9871916,1.176014,0.319312,-2.371609,-27.8105,-17.55832,-7.819691,-12.60014,81.96078,0.89,1449.5,24,23,0,32.54902,32.15686,0.9689642,16.38827,-0.08,13.38644,303.4231,339.6029,8.222901,5.644344,302,74,4296,0.97,1.35908,0.9609375,1.3542,0.96875,0,0,0,0,0,0,0,0,0,0,0,0,13.06,0,0,0,0,0,0,0,0,0,49,35,0,0,0,0,0,0,0,3,0,0,0,0,0,0,0,0,0,0,0,0,0,0,0,0,0,0,0,0,0,0,0,0,0,0,0,0,0,0,0,0,0,0,0,0,0,0,0,0,0,0,0,0,0,0,0,13.1,0.03415073,0,19.70666,0.8550816,0.0254864,11.28272,1.554983,2,9.84395
94.009,33.55404,4.44037,22.14287,-11.94788,4.764313,-8.383392,57,58,2.400857E-15,9.244043,34.17542,0.2594515,221.1363,3.317044,1.134306,-0.259207,-1.47741,-5.359668,-27.30824,-14.87298,-12.87114,-11.66223,81.96078,0.89,1449.5,24,23,0,32.54902,32.15686,0.9689642,16.38827,-0.08,13.38644,303.4231,339.6299,8.222901,5.644344,302,74,4296,0.97,1.35908,0.9609375,1.3542,0.96875,0,0,0,0,0,0,0,0,0,0,0,0,13.06,0,0,0,0,0,0,0,0,0,49,35,0,0,0,0,0,0,0,3,0,0,0,0,0,0,0,0,0,0,0,0,0,0,0,0,0,0,0,0,0,0,0,0,0,0,0,0,0,0,0,0,0,0,0,0,0,0,0,0,0,0,0,0,0,0,0,13.1,0.03415073,0,19.70666,0.8550816,0.0254864,11.28272,1.554983,2,9.84395
95.009,33.55404,5.128895,22.14952,-2.841095,-8.258026,0.8656158,57,58,2.400857E-15,10.64072,34.17542,0.2661037,255.4258,3.831386,0.4625,1.591495,0.5222652,-2.493681,-28.08982,-16.45696,-9.93614,-10.16632,74.11765,0.97,1454.5,25,23,0,33.33333,34.11765,1.161087,17.92298,0,15.46215,301.955,339.683,9.497947,5.645026,302,74,4296,0.97,1.295152,0.8203125,1.310768,0.859375,0,0,0,0,0,0,0,0,0,0,0,0,13.06,0,0,0,0,0,0,0,0,0,49,35,0,0,0,0,0,0,0,3,0,0,0,0,0,0,0,0,0,0,0,0,0,0,0,0,0,0,0,0,0,0,0,0,0,0,0,0,0,0,0,0,0,0,0,0,0,0,0,0,0,0,0,0,0,0,0,13.1,0.03415073,0,18.7797,0.8812693,0.02613985,11.22813,1.590325,2,9.84395
96.009,33.55404,5.128895,22.14952,-1.64653,-3.935608,4.070221,57,58,2.400857E-15,10.64072,34.17542,0.2661037,255.4258,3.831386,-0.236612,0.09534092,0.7090486,-3.575011,-28.95609,-16.88153,-10.15003,-11.9113,74.11765,0.97,1454.5,25,23,0,33.33333,34.11765,1.161087,17.92298,0,15.46215,301.955,339.5538,9.497947,5.645026,302,74,4296,0.97,1.295152,0.8203125,1.310768,0.859375,0,0,0,0,0,0,0,0,0,0,0,0,13.06,0,0,0,0,0,0,0,0,0,49,35,0,0,0,0,0,0,0,3,0,0,0,0,0,0,0,0,0,0,0,0,0,0,0,0,0,0,0,0,0,0,0,0,0,0,0,0,0,0,0,0,0,0,0,0,0,0,0,0,0,0,0,0,0,0,0,13.1,0.03415073,0,18.7797,0.8812693,0.02613985,11.22813,1.590325,2,9.84395
97.009,33.55404,5.024238,22.15742,-16.2037,-0.7882843,-7.253143,57,58,2.400857E-15,10.29268,34.17542,0.2740013,250.2137,3.753205,0.0446936,-0.09595521,-0.958033,-3.865487,-28.237,-16.49633,-11.02706,-10.97139,75.29412,1.04,1473,25,23,0,34.5098,34.5098,1.257648,19.39554,0.07,15.14664,300.1938,339.6617,9.304137,5.645821,302,74,4296,0.97,1.336632,0.9101563,1.348344,0.953125,0,0,0,0,0,0,0,0,0,0,0,0,13.06,0,0,0,0,0,0,0,0,0,49,35,0,0,0,0,0,0,0,3,0,0,0,0,0,0,0,0,0,0,0,0,0,0,0,0,0,0,0,0,0,0,0,0,0,0,0,0,0,0,0,0,0,0,0,0,0,0,0,0,0,0,0,0,0,0,0,13.1,0.01870425,0,19.38116,0.9127479,0.02691565,11.16264,1.619365,2,9.84395
98.009,33.55404,5.024238,22.15742,4.477554,-2.56955,5.83194,57,58,2.400857E-15,10.29268,34.17542,0.2740013,250.2137,3.753205,0.5765368,0.1993587,-0.2772467,-3.321089,-28.57263,-17.19033,-8.907286,-11.81323,75.29412,1.04,1473,25,23,0,34.5098,34.5098,1.257648,19.39554,0.07,15.14664,300.1938,339.9554,9.304137,5.645821,302,74,4296,0.97,1.336632,0.9101563,1.348344,0.953125,0,0,0,0,0,0,0,0,0,0,0,0,13.06,0,0,0,0,0,0,0,0,0,49,35,0,0,0,0,0,0,0,3,0,0,0,0,0,0,0,0,0,0,0,0,0,0,0,0,0,0,0,0,0,0,0,0,0,0,0,0,0,0,0,0,0,0,0,0,0,0,0,0,0,0,0,0,0,0,0,13.1,0.01870425,0,19.38116,0.9127479,0.02691565,11.16264,1.619365,2,9.84395
99.010,33.55404,4.962945,22.16385,-1.129395,10.55298,-5.086197,57,58,2.400857E-15,10.07478,34.17542,0.2804339,247.1612,3.707418,-0.5547397,1.019289,2.154936,-2.723279,-28.58822,-17.74801,-8.002905,-11.60326,74.90196,1,1486.5,25,23,0,33.33333,33.33333,1.207535,18.82048,0.03,14.96186,298.6945,339.4102,9.190632,5.646449,321,74,4296,0.97,1.341024,0.9179688,1.351272,0.96875,0,0,0,0,0,0,0,0,0,0,0,0,13.04,0,0,0,0,0,0,0,0,0,54,33,0,0,0,0,0,0,0,3,0,0,0,0,0,0,0,0,0,0,0,0,0,0,0,0,0,0,0,0,0,0,0,0,0,0,0,0,0,0,0,0,0,0,0,0,0,0,0,0,0,0,0,0,0,0,0,13.1,0.01870425,0,19.44485,0.9388652,0.02754753,11.10689,1.656805,2,9.84395
100.010,33.55404,4.962945,22.16385,8.893677,3.051453,-2.480804,57,58,2.400857E-15,10.07478,34.17542,0.2804339,247.1612,3.707418,-0.05771916,-0.1741991,0.03564257,-3.853417,-28.32596,-16.33553,-8.627472,-12.26816,74.90196,1,1486.5,25,23,0,33.33333,33.33333,1.207535,18.82048,0.03,14.96186,298.6945,339.5855,9.190632,5.646449,321,74,4296,0.97,1.341024,0.9179688,1.351272,0.96875,0,0,0,0,0,0,0,0,0,0,0,0,13.04,0,0,0,0,0,0,0,0,0,54,33,0,0,0,0,0,0,0,3,0,0,0,0,0,0,0,0,0,0,0,0,0,0,0,0,0,0,0,0,0,0,0,0,0,0,0,0,0,0,0,0,0,0,0,0,0,0,0,0,0,0,0,0,0,0,0,13.1,0.01870425,0,19.44485,0.9388652,0.02754753,11.10689,1.656805,2,9.84395
101.010,34.17542,4.792403,22.17192,5.834518,-12.57193,14.61645,57,58,0.06186529,9.660343,34.17542,0.2885086,234.3286,3.58002,-0.1965843,0.4973038,-0.8605322,-2.446184,-28.76578,-16.91136,-8.524197,-12.01454,76.07843,0.99,1497,25,23,0,32.94118,32.94118,1.161501,18.76389,0.02,14.44772,296.4645,339.6452,8.713454,5.647179,321,74,4296,0.97,1.348344,0.9453125,1.362496,0.9882813,0,0,0,0,0,0,0,0,0,0,0,0,13.04,0,0,0,0,0,0,0,0,0,54,33,0,0,0,0,0,0,0,3,0,0,0,0,0,0,0,0,0,0,0,0,0,0,0,0,0,0,0,0,0,0,0,0,0,0,0,0,0,0,0,0,0,0,0,0,0,0,0,0,0,0,0,0,0,0,0,13.1,0.0310773,0,19.55099,0.9731641,0.02834073,11.02396,1.686175,2,9.84395
102.012,34.17542,4.792403,22.17192,-1.436142,-3.152191,0.5463867,57,58,0.06186529,9.660343,34.17542,0.2885086,234.3286,3.58002,-0.1281951,-0.1505477,-1.752289,-2.547084,-28.61821,-17.23557,-9.157438,-12.1301,76.07843,0.99,1497,25,23,0,32.94118,32.94118,1.161501,18.76389,0.02,14.44772,296.4645,339.7685,8.713454,5.647179,321,74,4296,0.97,1.348344,0.9453125,1.362496,0.9882813,0,0,0,0,0,0,0,0,0,0,0,0,13.04,0,0,0,0,0,0,0,0,0,54,33,0,0,0,0,0,0,0,3,0,0,0,0,0,0,0,0,0,0,0,0,0,0,0,0,0,0,0,0,0,0,0,0,0,0,0,0,0,0,0,0,0,0,0,0,0,0,0,0,0,0,0,0,0,0,0,13.1,0.0310773,0,19.55099,0.9731641,0.02834073,11.02396,1.686175,2,9.84395
103.010,34.17542,4.892171,22.17839,3.658905,-3.503891,3.048889,57,58,0.06186529,9.831896,34.17542,0.2949795,239.2068,3.654548,0.4293172,0.4483874,-0.1744607,-3.361031,-28.91159,-17.01951,-10.02957,-10.61082,76.47059,0.99,1501.5,25,23,0,36.07843,36.07843,1.159158,18.82029,0.02,14.74849,294.9128,339.8732,8.894849,5.64778,321,74,4296,0.97,1.343464,0.9257813,1.34932,0.9648438,0,0,0,0,0,0,0,0,0,0,0,0,13.04,0,0,0,0,0,0,0,0,0,54,33,0,0,0,0,0,0,0,3,0,0,0,0,0,0,0,0,0,0,0,0,0,0,0,0,0,0,0,0,0,0,0,0,0,0,0,0,0,0,0,0,0,0,0,0,0,0,0,0,0,0,0,0,0,0,0,13.1,0.01511309,0,19.48023,1.000226,0.02897638,10.96626,1.721108,2,9.84395
104.010,34.17542,4.892171,22.17839,13.85849,0.7917175,7.225449,57,58,0.06186529,9.831896,34.17542,0.2949795,239.2068,3.654548,-0.4686719,0.4489853,2.499918,-3.315118,-29.06915,-16.47312,-10.69075,-10.70955,76.47059,0.99,1501.5,25,23,0,36.07843,36.07843,1.159158,18.82029,0.02,14.74849,294.9128,339.8558,8.894849,5.64778,321,74,4296,0.97,1.343464,0.9257813,1.34932,0.9648438,0,0,0,0,0,0,0,0,0,0,0,0,13.04,0,0,0,0,0,0,0,0,0,54,33,0,0,0,0,0,0,0,3,0,0,0,0,0,0,0,0,0,0,0,0,0,0,0,0,0,0,0,0,0,0,0,0,0,0,0,0,0,0,0,0,0,0,0,0,0,0,0,0,0,0,0,0,0,0,0,13.1,0.01511309,0,19.48023,1.000226,0.02897638,10.96626,1.721108,2,9.84395
105.010,34.79679,5.197167,22.18653,12.90253,0.07432556,10.26108,57,58,0.0660198,10.30079,34.79679,0.30311,249.582,3.882386,0.201474,-0.4645555,1.245145,-1.554731,-29.17159,-16.43313,-8.937084,-11.13681,76.07843,1,1522.5,25,23,0,34.11765,34.11765,1.221437,19.27627,0.03,15.66797,293.4408,339.9436,9.280648,5.648585,321,74,4296,0.97,1.339072,0.921875,1.349808,0.953125,0,0,0,0,0,0,0,0,0,0,0,0,13.04,0,0,0,0,0,0,0,0,0,54,33,0,0,0,0,0,0,0,3,0,0,0,0,0,0,0,0,0,0,0,0,0,0,0,0,0,0,0,0,0,0,0,0,0,0,0,0,0,0,0,0,0,0,0,0,0,0,0,0,0,0,0,0,0,0,0,13.1,0.02831705,0,19.41654,1.032951,0.02977505,10.91153,1.750164,2,9.84395
106.010,34.79679,5.045816,22.19309,10.9478,11.54425,-5.555771,57,58,0.0660198,9.929072,34.79679,0.3096797,242.3138,3.769325,-1.387739,-0.5216614,2.45956,-0.0145218,-30.94942,-18.97621,-5.763336,-9.796112,75.68627,1.02,1533.5,25,23,0,33.72549,33.72549,1.175538,19.80385,0.05,15.21169,292.1352,339.6651,9.01038,5.649209,321,74,4296,0.97,1.365912,0.9765625,1.372256,1.007813,0,0,0,0,0,0,0,0,0,0,0,0,13.04,0,0,0,0,0,0,0,0,0,54,33,0,0,0,0,0,0,0,3,0,0,0,0,0,0,0,0,0,0,0,0,0,0,0,0,0,0,0,0,0,0,0,0,0,0,0,0,0,0,0,0,0,0,0,0,0,0,0,0,0,0,0,0,0,0,0,13.1,0.01232527,0,19.80572,1.060056,0.0304204,10.86298,1.780283,2,9.84395
107.010,34.79679,5.045816,22.19309,4.602325,0.6426849,-4.588379,57,58,0.0660198,9.929072,34.79679,0.3096797,242.3138,3.769325,-0.5803148,-0.547487,-0.03704149,-4.938928,-30.06599,-16.62775,-11.29666,-11.51445,75.68627,1.02,1533.5,25,23,0,33.72549,33.72549,1.175538,19.80385,0.05,15.21169,292.1352,339.7092,9.01038,5.649209,321,74,4296,0.97,1.365912,0.9765625,1.372256,1.007813,0,0,0,0,0,0,0,0,0,0,0,0,13.04,0,0,0,0,0,0,0,0,0,54,33,0,0,0,0,0,0,0,3,0,0,0,0,0,0,0,0,0,0,0,0,0,0,0,0,0,0,0,0,0,0,0,0,0,0,0,0,0,0,0,0,0,0,0,0,0,0,0,0,0,0,0,0,0,0,0,13.1,0.01232527,0,19.80572,1.060056,0.0304204,10.86298,1.780283,2,9.84395
108.010,34.79679,5.037529,22.19987,2.048965,-3.514374,7.60408,57,58,2.400857E-15,9.890192,34.79679,0.3164492,241.9158,3.763134,-0.6280884,0.08563162,0.1586804,-4.739055,-29.77075,-16.28137,-10.41886,-12.26222,73.72549,1,1537,25,23,0,32.94118,32.94118,1.171227,19.45986,0.03,15.18671,290.8418,339.5346,8.995582,5.64985,321,74,4296,0.97,1.365424,0.9648438,1.372256,1.011719,0,0,0,0,0,0,0,0,0,0,0,0,13.04,0,0,0,0,0,0,0,0,0,54,33,0,0,0,0,0,0,0,3,0,0,0,0,0,0,0,0,0,0,0,0,0,0,0,0,0,0,0,0,0,0,0,0,0,0,0,0,0,0,0,0,0,0,0,0,0,0,0,0,0,0,0,0,0,0,0,13.1,0.02557702,0,19.79865,1.088046,0.03108538,10.81488,1.809319,2,9.84395
109.010,34.79679,5.037529,22.19987,10.722,-0.05181885,-1.542557,57,58,2.400857E-15,9.890192,34.79679,0.3164492,241.9158,3.763134,0.04795036,0.09277432,1.108503,-3.57821,-28.72736,-17.02715,-10.18882,-11.00642,73.72549,1,1537,25,23,0,32.94118,32.94118,1.171227,19.45986,0.03,15.18671,290.8418,339.4219,8.995582,5.64985,321,74,4296,0.97,1.365424,0.9648438,1.372256,1.011719,0,0,0,0,0,0,0,0,0,0,0,0,13.04,0,0,0,0,0,0,0,0,0,54,33,0,0,0,0,0,0,0,3,0,0,0,0,0,0,0,0,0,0,0,0,0,0,0,0,0,0,0,0,0,0,0,0,0,0,0,0,0,0,0,0,0,0,0,0,0,0,0,0,0,0,0,0,0,0,0,13.1,0.02557702,0,19.79865,1.088046,0.03108538,10.81488,1.809319,2,9.84395
110.010,35.41816,4.853076,22.20619,-4.626083,-15.40276,7.382156,57,58,0.08009578,9.363568,35.41816,0.3227741,228.9691,3.625344,0.3962527,0.1431409,-1.974309,-2.637268,-29.09342,-16.6801,-9.187838,-11.25253,87.45098,1.1,1564,25,23,0,35.29412,35.29412,1.155712,21.78187,0.13,14.63064,289.3534,339.5463,8.514163,5.650398,321,74,4296,0.97,1.347368,0.9375,1.355176,0.9804688,0,0,0,0,0,0,0,0,0,0,0,0,13.04,0,0,0,0,0,0,0,0,0,54,33,0,0,0,0,0,0,0,3,0,0,0,0,0,0,0,0,0,0,0,0,0,0,0,0,0,0,0,0,0,0,0,0,0,0,0,0,0,0,0,0,0,0,0,0,0,0,0,0,0,0,0,0,0,0,0,13.1,0.04159617,0,19.53684,1.115501,0.03170669,10.75954,1.843961,2,9.84395
111.010,35.41816,4.853076,22.20619,7.654831,0.3583984,3.724609,57,58,0.08009578,9.363568,35.41816,0.3227741,228.9691,3.625344,-0.1344607,-0.2749479,-0.5674944,-4.010267,-28.88719,-16.28962,-9.772448,-11.34563,87.45098,1.1,1564,25,23,0,35.29412,35.29412,1.155712,21.78187,0.13,14.63064,289.3534,339.9606,8.514163,5.650398,321,74,4296,0.97,1.347368,0.9375,1.355176,0.9804688,0,0,0,0,0,0,0,0,0,0,0,0,13.04,0,0,0,0,0,0,0,0,0,54,33,0,0,0,0,0,0,0,3,0,0,0,0,0,0,0,0,0,0,0,0,0,0,0,0,0,0,0,0,0,0,0,0,0,0,0,0,0,0,0,0,0,0,0,0,0,0,0,0,0,0,0,0,0,0,0,13.1,0.04159617,0,19.53684,1.115501,0.03170669,10.75954,1.843961,2,9.84395
112.010,36.03953,5.935748,22.21548,-7.548356,0.01832581,-7.150208,57,58,0.1460736,11.31503,36.03953,0.3320616,275.2213,4.434121,0.9704075,1.366864,1.190836,-3.413687,-28.93129,-17.06387,-7.859108,-12.03764,76.07843,1,1583,25,23,0,33.72549,33.72549,1.171111,20.04226,0.03,17.89458,288.8958,339.5908,10.23404,5.65145,321,74,4296,0.97,1.336144,0.9140625,1.345416,0.9609375,0,0,0,0,0,0,0,0,0,0,0,0,13.04,0,0,0,0,0,0,0,0,0,54,33,0,0,0,0,0,0,0,3,0,0,0,0,0,0,0,0,0,0,0,0,0,0,0,0,0,0,0,0,0,0,0,0,0,0,0,0,0,0,0,0,0,0,0,0,0,0,0,0,0,0,0,0,0,0,0,13.1,0.05479175,0,19.37409,1.149417,0.03261901,10.74252,1.873419,2,9.84395
113.012,36.03953,5.935748,22.21548,0.3080902,7.985885,1.198517,57,58,0.1460736,11.31503,36.03953,0.3320616,275.2213,4.434121,0.2783791,-0.6081814,0.1481422,-5.310491,-28.91986,-17.18178,-9.096815,-11.79398,76.07843,1,1583,25,23,0,33.72549,33.72549,1.171111,20.04226,0.03,17.89458,288.8958,339.3732,10.23404,5.65145,321,74,4296,0.97,1.336144,0.9140625,1.345416,0.9609375,0,0,0,0,0,0,0,0,0,0,0,0,13.04,0,0,0,0,0,0,0,0,0,54,33,0,0,0,0,0,0,0,3,0,0,0,0,0,0,0,0,0,0,0,0,0,0,0,0,0,0,0,0,0,0,0,0,0,0,0,0,0,0,0,0,0,0,0,0,0,0,0,0,0,0,0,0,0,0,0,13.1,0.05479175,0,19.37409,1.149417,0.03261901,10.74252,1.873419,2,9.84395
114.011,36.6609,5.188329,22.22234,-3.469421,2.665955,0.3800049,57,58,0.1444099,9.772957,36.6609,0.3389255,236.4885,3.875784,-0.2799865,0.1397522,-0.1764931,-4.350094,-28.19709,-18.3578,-7.359415,-12.41852,74.5098,1.01,1602,25,23,0,33.33333,33.33333,1.162544,20.48565,0.04,15.64132,287.6057,339.3941,8.793771,5.652073,321,74,4296,0.97,1.342,0.921875,1.357616,0.9765625,0,0,0,0,0,0,0,0,0,0,0,0,13.04,0,0,0,0,0,0,0,0,0,54,33,0,0,0,0,0,0,0,3,0,0,0,0,0,0,0,0,0,0,0,0,0,0,0,0,0,0,0,0,0,0,0,0,0,0,0,0,0,0,0,0,0,0,0,0,0,0,0,0,0,0,0,0,0,0,0,13.1,0.07047816,0,19.459,1.178438,0.03329328,10.69455,1.904197,2,9.84395
115.011,36.6609,5.013747,22.22921,-6.893372,-0.7279968,-2.41037,57,58,0.07843207,9.379702,36.6609,0.3457898,228.5309,3.745368,-1.258843,-1.054662,-0.42833,-6.813216,-27.66557,-18.37599,-10.3875,-14.04523,70.98039,0.99,1613,25,23,0,32.15686,32.15686,1.133472,20.21787,0.02,15.11501,286.138,339.4506,8.497869,5.652658,321,74,4296,0.97,1.397144,1.039063,1.399584,1.066406,0,0,0,0,0,0,0,0,0,0,0,0,13.04,0,0,0,0,0,0,0,0,0,54,33,0,0,0,0,0,0,0,3,0,0,0,0,0,0,0,0,0,0,0,0,0,0,0,0,0,0,0,0,0,0,0,0,0,0,0,0,0,0,0,0,0,0,0,0,0,0,0,0,0,0,0,0,0,0,0,13.1,0.07047816,0,20.25859,1.208472,0.03396756,10.63998,1.93324,2,9.84395
116.011,36.6609,5.013747,22.22921,8.229553,-2.730484,1.560318,57,58,0.07843207,9.379702,36.6609,0.3457898,228.5309,3.745368,0.9664713,0.6738155,0.3193103,-6.560324,-26.88753,-17.39891,-11.73697,-12.19046,70.98039,0.99,1613,25,23,0,32.15686,32.15686,1.133472,20.21787,0.02,15.11501,286.138,339.2985,8.497869,5.652658,321,74,4296,0.97,1.397144,1.039063,1.399584,1.066406,0,0,0,0,0,0,0,0,0,0,0,0,13.04,0,0,0,0,0,0,0,0,0,54,33,0,0,0,0,0,0,0,3,0,0,0,0,0,0,0,0,0,0,0,0,0,0,0,0,0,0,0,0,0,0,0,0,0,0,0,0,0,0,0,0,0,0,0,0,0,0,0,0,0,0,0,0,0,0,0,13.1,0.07047816,0,20.25859,1.208472,0.03396756,10.63998,1.93324,2,9.84395
117.011,36.6609,5.013747,22.22921,-3.69751,27.52567,-2.781479,57,58,0.07843207,9.379702,36.6609,0.3457898,228.5309,3.745368,-0.7999288,-0.5751706,0.03634821,-9.748347,-27.31513,-16.71522,-14.40816,-11.80675,70.98039,0.99,1613,25,23,0,32.15686,32.15686,1.133472,20.21787,0.02,15.11501,286.138,339.528,8.497869,5.652658,321,74,4296,0.97,1.397144,1.039063,1.399584,1.066406,0,0,0,0,0,0,0,0,0,0,0,0,13.04,0,0,0,0,0,0,0,0,0,54,33,0,0,0,0,0,0,0,3,0,0,0,0,0,0,0,0,0,0,0,0,0,0,0,0,0,0,0,0,0,0,0,0,0,0,0,0,0,0,0,0,0,0,0,0,0,0,0,0,0,0,0,0,0,0,0,13.1,0.07047816,0,20.25859,1.208472,0.03396756,10.63998,1.93324,2,9.84395
118.011,36.6609,5.013747,22.22921,-29.0578,30.9084,8.399551,57,58,0.07843207,9.379702,36.6609,0.3457898,228.5309,3.745368,0.5335786,0.02244334,1.787346,-9.060832,-28.08825,-15.01384,-14.18295,-12.06844,70.98039,0.99,1613,25,23,0,32.15686,32.15686,1.133472,20.21787,0.02,15.11501,286.138,339.3232,8.497869,5.652658,321,74,4296,0.97,1.397144,1.039063,1.399584,1.066406,0,0,0,0,0,0,0,0,0,0,0,0,13.04,0,0,0,0,0,0,0,0,0,54,33,0,0,0,0,0,0,0,3,0,0,0,0,0,0,0,0,0,0,0,0,0,0,0,0,0,0,0,0,0,0,0,0,0,0,0,0,0,0,0,0,0,0,0,0,0,0,0,0,0,0,0,0,0,0,0,13.1,0.07047816,0,20.25859,1.208472,0.03396756,10.63998,1.93324,2,9.84395
119.011,36.6609,4.632904,22.23522,6.204559,-5.424667,0.1420898,60,62,2.38698E-15,8.675289,36.6609,0.3518029,211.1718,3.460871,0.1768596,-0.5112041,-0.8165795,-10.82609,-33.43628,-14.26683,-10.82148,-10.17365,72.54902,0.96,1611.5,24,23,0,31.37255,31.37255,1.091955,19.58697,-0.01,13.96688,284.4088,339.3316,7.852373,5.653086,340,74,4296,0.97,1.35176,0.9492188,1.361032,0.9960938,0,0,0,0,0,0,0,0,0,0,0,0,13.06,0,0,0,0,0,0,0,0,0,58,35,0,0,0,0,0,0,0,3,0,0,0,0,0,0,0,0,0,0,0,0,0,0,0,0,0,0,0,0,0,0,0,0,0,0,0,0,0,0,0,0,0,0,0,0,0,0,0,0,0,0,0,0,0,0,0,13.1,0.07047816,0,19.60052,1.236962,0.03455824,10.57568,1.985685,2,9.84395
120.011,36.6609,3.909267,22.24441,-4.478745,-16.96812,5.405823,60,62,2.38698E-15,7.329349,36.6609,0.3609959,178.1878,2.9203,-0.8501219,0.2730483,0.1915152,-9.363564,-33.91671,-15.14189,-11.03844,-9.104538,78.43137,0.81,1609.5,24,23,0,25.4902,25.4902,0.8992876,16.56154,-0.16,11.78532,280.1454,339.2769,6.625871,5.653427,340,74,4296,0.97,1.329312,0.8945313,1.335168,0.9296875,0,0,0,0,0,0,0,0,0,0,0,0,13.06,0,0,0,0,0,0,0,0,0,58,35,0,0,0,0,0,0,0,3,0,0,0,0,0,0,0,0,0,0,0,0,0,0,0,0,0,0,0,0,0,0,0,0,0,0,0,0,0,0,0,0,0,0,0,0,0,0,0,0,0,0,0,0,0,0,0,13.1,0.0581051,0,19.27502,1.288602,0.03546128,10.41714,2.014691,2,9.84395
121.011,36.6609,3.909267,22.24441,7.282058,15.54065,-3.311066,60,62,2.38698E-15,7.329349,36.6609,0.3609959,178.1878,2.9203,-1.406126,-1.321817,0.8131644,-11.2949,-33.93011,-15.2564,-11.20174,-10.67526,78.43137,0.81,1609.5,24,23,0,25.4902,25.4902,0.8992876,16.56154,-0.16,11.78532,280.1454,339.5189,6.625871,5.653427,340,74,4296,0.97,1.329312,0.8945313,1.335168,0.9296875,0,0,0,0,0,0,0,0,0,0,0,0,13.06,0,0,0,0,0,0,0,0,0,58,35,0,0,0,0,0,0,0,3,0,0,0,0,0,0,0,0,0,0,0,0,0,0,0,0,0,0,0,0,0,0,0,0,0,0,0,0,0,0,0,0,0,0,0,0,0,0,0,0,0,0,0,0,0,0,0,13.1,0.0581051,0,19.27502,1.288602,0.03546128,10.41714,2.014691,2,9.84395
122.013,36.6609,3.824501,22.24938,-20.87196,-30.05911,-15.0831,60,62,2.38698E-15,7.260647,36.6609,0.3659602,174.3241,2.856978,1.125833,0.08873458,-1.332015,-8.492435,-30.3417,-13.10915,-0.1141396,-21.23105,47.84314,0.69,1589.5,24,23,0,21.96078,21.96078,0.8148153,13.93267,-0.28,11.52978,277.8686,339.4686,6.482201,5.65359,340,74,4296,0.97,2.130608,1.945313,2.108648,1.992188,0,0,0,0,0,0,0,0,0,0,0,0,13.06,0,0,0,0,0,0,0,0,0,58,35,0,0,0,0,0,0,0,3,0,0,0,0,0,0,0,0,0,0,0,0,0,0,0,0,0,0,0,0,0,0,0,0,0,0,0,0,0,0,0,0,0,0,0,0,0,0,0,0,0,0,0,0,0,0,0,13.1,0.0581051,0,30.89382,1.317026,0.03594893,10.33248,2.044802,2,9.84395
123.011,36.6609,3.824501,22.24938,5.877213,1.751541,-4.163284,60,62,2.38698E-15,7.260647,36.6609,0.3659602,174.3241,2.856978,0.08713874,0.658119,0.4811721,-9.198926,-34.16365,-16.12163,-3.585278,-13.63811,47.84314,0.69,1589.5,24,23,0,21.96078,21.96078,0.8148153,13.93267,-0.28,11.52978,277.8686,339.7411,6.482201,5.65359,340,74,4296,0.97,2.130608,1.945313,2.108648,1.992188,0,0,0,0,0,0,0,0,0,0,0,0,13.06,0,0,0,0,0,0,0,0,0,58,35,0,0,0,0,0,0,0,3,0,0,0,0,0,0,0,0,0,0,0,0,0,0,0,0,0,0,0,0,0,0,0,0,0,0,0,0,0,0,0,0,0,0,0,0,0,0,0,0,0,0,0,0,0,0,0,13.1,0.0581051,0,30.89382,1.317026,0.03594893,10.33248,2.044802,2,9.84395
124.011,36.03953,2.262929,22.25242,-5.751907,-25.35986,18.71112,60,62,-0.0771495,4.378715,36.6609,0.3690047,104.9247,1.690453,-2.497526,-0.2070041,0.7891625,-8.117714,-34.25623,-17.13303,-5.651531,-11.91017,50.98039,0.75,1559.5,24,23,0,23.52941,23.13725,0.8003058,14.85838,-0.22,6.822084,274.1429,339.8066,3.901599,5.653244,340,74,4296,0.97,1.602592,1.367188,1.58356,1.382813,0,0,0,0,0,0,0,0,0,0,0,0,13.06,0,0,0,0,0,0,0,0,0,58,35,0,0,0,0,0,0,0,3,0,0,0,0,0,0,0,0,0,0,0,0,0,0,0,0,0,0,0,0,0,0,0,0,0,0,0,0,0,0,0,0,0,0,0,0,0,0,0,0,0,0,0,0,0,0,0,13.1,0.02947124,0,23.23758,1.34603,0.03624801,10.19394,2.073508,2,9.84395
125.011,36.03953,2.262929,22.25242,-10.43022,-25.0323,12.93857,60,62,-0.0771495,4.378715,36.6609,0.3690047,104.9247,1.690453,-0.5713498,0.09010315,0.1151072,-7.520772,-35.2876,-17.48512,-4.957014,-11.04655,50.98039,0.75,1559.5,24,23,0,23.52941,23.13725,0.8003058,14.85838,-0.22,6.822084,274.1429,339.8051,3.901599,5.653244,340,74,4296,0.97,1.602592,1.367188,1.58356,1.382813,0,0,0,0,0,0,0,0,0,0,0,0,13.06,0,0,0,0,0,0,0,0,0,58,35,0,0,0,0,0,0,0,3,0,0,0,0,0,0,0,0,0,0,0,0,0,0,0,0,0,0,0,0,0,0,0,0,0,0,0,0,0,0,0,0,0,0,0,0,0,0,0,0,0,0,0,0,0,0,0,13.1,0.02947124,0,23.23758,1.34603,0.03624801,10.19394,2.073508,2,9.84395
126.011,35.41816,2.478465,22.25565,-11.85185,-35.76749,7.654831,60,62,-0.1566751,4.875492,36.6609,0.3722375,116.9345,1.851462,-0.3118591,0.8605523,-0.3936963,-8.216098,-33.31042,-17.07938,-2.473228,-14.24194,63.13726,0.74,1534,24,23,0,23.13725,23.13725,0.8384157,14.42055,-0.23,7.471862,270.9778,339.8284,4.348181,5.652997,340,74,4296,0.97,1.67872,1.472656,1.6714,1.507813,0,0,0,0,0,0,0,0,0,0,0,0,13.06,0,0,0,0,0,0,0,0,0,58,35,0,0,0,0,0,0,0,3,0,0,0,0,0,0,0,0,0,0,0,0,0,0,0,0,0,0,0,0,0,0,0,0,0,0,0,0,0,0,0,0,0,0,0,0,0,0,0,0,0,0,0,0,0,0,0,13.1,0.01356611,0,24.34144,1.373683,0.03656557,10.07625,2.108771,2,9.84395
127.013,35.41816,2.478465,22.25565,9.288757,-8.743927,-6.018021,60,62,-0.1566751,4.875492,36.6609,0.3722375,116.9345,1.851462,-0.02218099,0.6033461,2.948602,-5.652885,-35.12749,-20.10069,-2.588125,-11.06555,63.13726,0.74,1534,24,23,0,23.13725,23.13725,0.8384157,14.42055,-0.23,7.471862,270.9778,339.8313,4.348181,5.652997,340,74,4296,0.97,1.67872,1.472656,1.6714,1.507813,0,0,0,0,0,0,0,0,0,0,0,0,13.06,0,0,0,0,0,0,0,0,0,58,35,0,0,0,0,0,0,0,3,0,0,0,0,0,0,0,0,0,0,0,0,0,0,0,0,0,0,0,0,0,0,0,0,0,0,0,0,0,0,0,0,0,0,0,0,0,0,0,0,0,0,0,0,0,0,0,13.1,0.01356611,0,24.34144,1.373683,0.03656557,10.07625,2.108771,2,9.84395
128.013,34.79679,2.795984,22.26004,-0.3245697,7.551468,-8.57872,60,62,-0.145673,5.636037,36.6609,0.3766239,134.2707,2.088655,0.009578137,0.9495604,0.1888998,-6.249651,-35.05324,-19.07366,-5.827488,-8.136002,54.11765,0.72,1497,24,23,0,15.68627,14.90196,0.7764057,13.69239,-0.25,8.42909,267.8035,339.9099,4.992824,5.65285,340,74,4296,0.97,11.76324,3.535156,8.672736,3.515625,0,0,0,0,0,0,0,0,0,0,0,0,13.06,0,0,0,0,0,0,0,0,0,58,35,0,0,0,0,0,0,0,3,0,0,0,0,0,0,0,0,0,0,0,0,0,0,0,0,0,0,0,0,0,0,0,0,0,0,0,0,0,0,0,0,0,0,0,0,0,0,0,0,0,0,0,0,0,0,0,13.1,0.0003366379,0,170.567,1.406344,0.03699645,9.958209,2.13783,2,9.84395
129.013,34.79679,2.795984,22.26004,21.4252,32.42294,-7.871247,60,62,-0.145673,5.636037,36.6609,0.3766239,134.2707,2.088655,2.681375,1.047181,0.3017007,-4.551026,-34.50443,-20.12939,-3.699141,-8.661606,54.11765,0.72,1497,24,23,0,15.68627,14.90196,0.7764057,13.69239,-0.25,8.42909,267.8035,339.9266,4.992824,5.65285,340,74,4296,0.97,11.76324,3.535156,8.672736,3.515625,0,0,0,0,0,0,0,0,0,0,0,0,13.06,0,0,0,0,0,0,0,0,0,58,35,0,0,0,0,0,0,0,3,0,0,0,0,0,0,0,0,0,0,0,0,0,0,0,0,0,0,0,0,0,0,0,0,0,0,0,0,0,0,0,0,0,0,0,0,0,0,0,0,0,0,0,0,0,0,0,13.1,0.0003366379,0,170.567,1.406344,0.03699645,9.958209,2.13783,2,9.84395
130.013,33.55404,2.472588,22.26324,2.723587,15.69459,-5.329315,60,62,-0.2262088,5.133314,36.6609,0.3798274,123.1382,1.847072,-1.700487,-1.261947,-1.472465,-7.220696,-34.83845,-18.98119,-7.953201,-7.553299,28.23529,0.7,1453.5,24,23,0,21.17647,21.17647,0.8208357,12.92522,-0.27,7.454145,265.173,340.3461,4.578864,5.652658,340,74,4296,0.97,4.34564,2.878906,4.134824,2.917969,0,0,0,0,0,0,0,0,0,0,0,0,13.06,0,0,0,0,0,0,0,0,0,58,35,0,0,0,0,0,0,0,3,0,0,0,0,0,0,0,0,0,0,0,0,0,0,0,0,0,0,0,0,0,0,0,0,0,0,0,0,0,0,0,0,0,0,0,0,0,0,0,0,0,0,0,0,0,0,0,13.1,-0.04769479,0,63.01178,1.432376,0.03731114,9.860394,2.167575,2,9.84395
131.013,32.93267,1.291699,22.26498,-5.466797,10.16624,4.190964,60,62,-0.2371367,2.733397,36.6609,0.3815668,65.54205,0.9649247,-1.067185,-0.4893346,-0.07026207,-6.088472,-35.98738,-19.15584,-6.375767,-7.190781,61.17647,0.79,1426,24,23,0,23.92157,23.92157,0.8464847,14.31105,-0.18,3.894102,261.5432,340.2305,2.437166,5.652076,340,74,4296,0.97,1.1834,0.5507813,1.219512,0.6679688,0,0,0,0,0,0,0,0,0,0,0,0,13.06,0,0,0,0,0,0,0,0,0,58,35,0,0,0,0,0,0,0,3,0,0,0,0,0,0,0,0,0,0,0,0,0,0,0,0,0,0,0,0,0,0,0,0,0,0,0,0,0,0,0,0,0,0,0,0,0,0,0,0,0,0,0,0,0,0,0,13.1,-0.07630543,0,17.1593,1.458905,0.037482,9.725423,2.197269,2,9.84395
132.013,32.93267,1.291699,22.26498,8.391907,5.047577,-10.00801,60,62,-0.2371367,2.733397,36.6609,0.3815668,65.54205,0.9649247,-0.2326567,-0.5465248,0.1061833,-6.517297,-36.05386,-20.10649,-6.10544,-7.200851,61.17647,0.79,1426,24,23,0,23.92157,23.92157,0.8464847,14.31105,-0.18,3.894102,261.5432,340.3758,2.437166,5.652076,340,74,4296,0.97,1.1834,0.5507813,1.219512,0.6679688,0,0,0,0,0,0,0,0,0,0,0,0,13.06,0,0,0,0,0,0,0,0,0,58,35,0,0,0,0,0,0,0,3,0,0,0,0,0,0,0,0,0,0,0,0,0,0,0,0,0,0,0,0,0,0,0,0,0,0,0,0,0,0,0,0,0,0,0,0,0,0,0,0,0,0,0,0,0,0,0,13.1,-0.07630543,0,17.1593,1.458905,0.037482,9.725423,2.197269,2,9.84395
133.013,32.3113,3.500589,22.26962,8.801941,55.68817,-13.1738,60,62,-0.1558687,7.366362,36.6609,0.3862042,181.0391,2.61501,-0.8053805,-0.4246155,-0.7710733,-6.448033,-34.46833,-19.27608,-6.7118,-5.488861,79.60784,0.97,1434,25,23,0,32.94118,32.94118,1.079201,17.67037,0,10.55327,260.1812,340.7071,6.731898,5.652271,340,74,4296,0.97,1.374696,1,1.388848,1.046875,0,0,0,0,0,0,0,0,0,0,0,0,13.06,0,0,0,0,0,0,0,0,0,58,35,0,0,0,0,0,0,0,3,0,0,0,0,0,0,0,0,0,0,0,0,0,0,0,0,0,0,0,0,0,0,0,0,0,0,0,0,0,0,0,0,0,0,0,0,0,0,0,0,0,0,0,0,0,0,0,13.1,-0.1077505,0,19.93309,1.484367,0.03793755,9.674776,2.23226,2,9.84395
134.013,32.3113,3.500589,22.26962,-8.917847,-17.39912,-3.931076,60,62,-0.1558687,7.366362,36.6609,0.3862042,181.0391,2.61501,-0.1999941,0.7018641,0.3462872,-6.102003,-35.99343,-18.53603,-8.478344,-3.410461,79.60784,0.97,1434,25,23,0,32.94118,32.94118,1.079201,17.67037,0,10.55327,260.1812,340.8171,6.731898,5.652271,340,74,4296,0.97,1.374696,1,1.388848,1.046875,0,0,0,0,0,0,0,0,0,0,0,0,13.06,0,0,0,0,0,0,0,0,0,58,35,0,0,0,0,0,0,0,3,0,0,0,0,0,0,0,0,0,0,0,0,0,0,0,0,0,0,0,0,0,0,0,0,0,0,0,0,0,0,0,0,0,0,0,0,0,0,0,0,0,0,0,0,0,0,0,13.1,-0.1077505,0,19.93309,1.484367,0.03793755,9.674776,2.23226,2,9.84395
135.013,33.55404,5.603778,22.27842,-7.772247,-29.76784,6.113937,60,62,0.05293357,11.59406,36.6609,0.3950036,279.0756,4.186133,0.8864027,0.6837069,0.5875,-6.6401,-35.47897,-17.26712,-8.081501,-3.630234,67.45098,1.04,1458.5,25,23,0,34.5098,34.11765,1.324647,19.20461,0.07,16.89379,260.5569,340.7569,10.37736,5.653284,340,74,4296,0.97,1.357616,0.9570313,1.358104,0.984375,0,0,0,0,0,0,0,0,0,0,0,0,13.06,0,0,0,0,0,0,0,0,0,58,35,0,0,0,0,0,0,0,3,0,0,0,0,0,0,0,0,0,0,0,0,0,0,0,0,0,0,0,0,0,0,0,0,0,0,0,0,0,0,0,0,0,0,0,0,0,0,0,0,0,0,0,0,0,0,0,13.1,-0.08140513,0,19.68543,1.515998,0.03880192,9.688745,2.261071,2,9.84395
136.013,33.55404,5.603778,22.27842,1.477158,-15.35504,4.723709,60,62,0.05293357,11.59406,36.6609,0.3950036,279.0756,4.186133,-0.2502912,0.2634765,1.47515,-5.689271,-35.15311,-18.9563,-6.807442,-2.835678,67.45098,1.04,1458.5,25,23,0,34.5098,34.11765,1.324647,19.20461,0.07,16.89379,260.5569,340.6748,10.37736,5.653284,340,74,4296,0.97,1.357616,0.9570313,1.358104,0.984375,0,0,0,0,0,0,0,0,0,0,0,0,13.06,0,0,0,0,0,0,0,0,0,58,35,0,0,0,0,0,0,0,3,0,0,0,0,0,0,0,0,0,0,0,0,0,0,0,0,0,0,0,0,0,0,0,0,0,0,0,0,0,0,0,0,0,0,0,0,0,0,0,0,0,0,0,0,0,0,0,13.1,-0.08140513,0,19.68543,1.515998,0.03880192,9.688745,2.261071,2,9.84395
137.013,33.55404,4.544683,22.28431,-10.11211,-9.722565,-2.838623,60,62,0.131727,9.238137,36.6609,0.4008949,226.3312,3.394968,0.1253438,0.4495134,-0.1995842,-5.659756,-35.53141,-18.62579,-9.262798,-1.8414,70.19608,1.03,1484.5,25,23,0,33.72549,34.11765,1.246617,19.35901,0.06,13.70092,259.9701,341.369,8.416073,5.653772,359,74,4296,0.97,1.300032,0.828125,1.318576,0.8984375,0,0,0,0,0,0,0,0,0,0,0,0,13.1,0,0,0,0,0,0,0,0,0,56,32,0,0,0,0,0,0,0,3,0,0,0,0,0,0,0,0,0,0,0,0,0,0,0,0,0,0,0,0,0,0,0,0,0,0,0,0,0,0,0,0,0,0,0,0,0,0,0,0,0,0,0,0,0,0,0,13.1,-0.08140513,0,18.85046,1.542081,0.03938064,9.666925,2.298783,2,9.84395
138.013,33.55404,4.544683,22.28431,-12.04028,-30.55192,10.48353,60,62,0.131727,9.238137,36.6609,0.4008949,226.3312,3.394968,-0.5404933,0.5839024,-0.6216242,-1.289898,-35.65393,-19.53205,-3.982246,-0.7703552,70.19608,1.03,1484.5,25,23,0,33.72549,34.11765,1.246617,19.35901,0.06,13.70092,259.9701,341.3507,8.416073,5.653772,359,74,4296,0.97,1.300032,0.828125,1.318576,0.8984375,0,0,0,0,0,0,0,0,0,0,0,0,13.1,0,0,0,0,0,0,0,0,0,56,32,0,0,0,0,0,0,0,3,0,0,0,0,0,0,0,0,0,0,0,0,0,0,0,0,0,0,0,0,0,0,0,0,0,0,0,0,0,0,0,0,0,0,0,0,0,0,0,0,0,0,0,0,0,0,0,13.1,-0.08140513,0,18.85046,1.542081,0.03938064,9.666925,2.298783,2,9.84395
139.013,34.17542,4.902225,22.29257,1.989655,-3.36145,0.5295715,60,62,0.0619637,9.796645,36.6609,0.4091507,239.6985,3.66206,0.5962673,0.1174141,0.7239012,-3.002383,-33.28645,-16.97369,-6.174391,3.644653,74.5098,1.06,1510,25,23,0,35.29412,35.68628,1.269476,20.26509,0.09,14.77881,259.5598,341.5274,8.913131,5.654546,359,74,4296,0.97,1.333216,0.9140625,1.343464,0.9453125,0,0,0,0,0,0,0,0,0,0,0,0,13.1,0,0,0,0,0,0,0,0,0,56,32,0,0,0,0,0,0,0,3,0,0,0,0,0,0,0,0,0,0,0,0,0,0,0,0,0,0,0,0,0,0,0,0,0,0,0,0,0,0,0,0,0,0,0,0,0,0,0,0,0,0,0,0,0,0,0,13.1,-0.06901239,0,19.33163,1.576326,0.04019162,9.65167,2.328198,2,9.84395
140.013,34.17542,4.902225,22.29257,-6.792953,-3.57608,-1.923065,60,62,0.0619637,9.796645,36.6609,0.4091507,239.6985,3.66206,0.1337872,-0.5757703,-0.1418971,-1.94631,-34.29279,-17.39892,-6.972742,6.106964,74.5098,1.06,1510,25,23,0,35.29412,35.68628,1.269476,20.26509,0.09,14.77881,259.5598,341.6183,8.913131,5.654546,359,74,4296,0.97,1.333216,0.9140625,1.343464,0.9453125,0,0,0,0,0,0,0,0,0,0,0,0,13.1,0,0,0,0,0,0,0,0,0,56,32,0,0,0,0,0,0,0,3,0,0,0,0,0,0,0,0,0,0,0,0,0,0,0,0,0,0,0,0,0,0,0,0,0,0,0,0,0,0,0,0,0,0,0,0,0,0,0,0,0,0,0,0,0,0,0,13.1,-0.06901239,0,19.33163,1.576326,0.04019162,9.65167,2.328198,2,9.84395
141.013,34.79679,5.07481,22.29927,1.582703,3.717972,1.324524,60,62,0.1403075,10.03521,36.6609,0.4158542,243.7061,3.790984,-0.7374213,0.09204981,-1.008869,-5.144769,-33.3921,-15.73087,-10.26983,4.919891,72.54902,1,1526,25,23,0,32.15686,34.11765,1.217177,19.32059,0.03,15.2991,259.2765,341.9066,9.062155,5.655182,359,74,4296,0.97,1.298568,0.8359375,1.325408,0.921875,0,0,0,0,0,0,0,0,0,0,0,0,13.1,0,0,0,0,0,0,0,0,0,56,32,0,0,0,0,0,0,0,3,0,0,0,0,0,0,0,0,0,0,0,0,0,0,0,0,0,0,0,0,0,0,0,0,0,0,0,0,0,0,0,0,0,0,0,0,0,0,0,0,0,0,0,0,0,0,0,13.1,-0.05334362,0,18.82924,1.603903,0.04085012,9.641134,2.363183,2,9.84395
142.013,34.79679,5.07481,22.29927,1.426666,-10.56235,-1.637756,60,62,0.1403075,10.03521,36.6609,0.4158542,243.7061,3.790984,0.08259718,-0.1419868,-1.720626,-6.102782,-33.05647,-15.48715,-11.13472,4.748306,72.54902,1,1526,25,23,0,32.15686,34.11765,1.217177,19.32059,0.03,15.2991,259.2765,341.9274,9.062155,5.655182,359,74,4296,0.97,1.298568,0.8359375,1.325408,0.921875,0,0,0,0,0,0,0,0,0,0,0,0,13.1,0,0,0,0,0,0,0,0,0,56,32,0,0,0,0,0,0,0,3,0,0,0,0,0,0,0,0,0,0,0,0,0,0,0,0,0,0,0,0,0,0,0,0,0,0,0,0,0,0,0,0,0,0,0,0,0,0,0,0,0,0,0,0,0,0,0,13.1,-0.05334362,0,18.82924,1.603903,0.04085012,9.641134,2.363183,2,9.84395
143.013,35.41816,5.25978,22.30752,0.7059479,-3.381088,-14.66811,60,62,0.1442296,10.23003,36.6609,0.4241026,248.1575,3.92916,-0.3050512,-0.2579756,-0.7848756,-4.888133,-33.69629,-16.87777,-11.55465,7.220749,81.17647,1.1,1551.5,25,23,0,36.86274,38.43137,1.282052,21.60778,0.13,15.85673,259.0287,341.915,9.227676,5.655986,359,74,4296,0.97,1.294176,0.8320313,1.286368,0.8242188,0,0,0,0,0,0,0,0,0,0,0,0,13.1,0,0,0,0,0,0,0,0,0,56,32,0,0,0,0,0,0,0,3,0,0,0,0,0,0,0,0,0,0,0,0,0,0,0,0,0,0,0,0,0,0,0,0,0,0,0,0,0,0,0,0,0,0,0,0,0,0,0,0,0,0,0,0,0,0,0,13.1,-0.02473657,0,18.76555,1.63728,0.04166037,9.631924,2.391886,2,9.84395
144.013,35.41816,5.25978,22.30752,-3.669922,-14.54714,-4.711731,60,62,0.1442296,10.23003,36.6609,0.4241026,248.1575,3.92916,0.1444972,0.03460212,-0.467886,-3.721514,-33.95163,-18.52355,-9.6458,6.743393,81.17647,1.1,1551.5,25,23,0,36.86274,38.43137,1.282052,21.60778,0.13,15.85673,259.0287,342.0742,9.227676,5.655986,359,74,4296,0.97,1.294176,0.8320313,1.286368,0.8242188,0,0,0,0,0,0,0,0,0,0,0,0,13.1,0,0,0,0,0,0,0,0,0,56,32,0,0,0,0,0,0,0,3,0,0,0,0,0,0,0,0,0,0,0,0,0,0,0,0,0,0,0,0,0,0,0,0,0,0,0,0,0,0,0,0,0,0,0,0,0,0,0,0,0,0,0,0,0,0,0,13.1,-0.02473657,0,18.76555,1.63728,0.04166037,9.631924,2.391886,2,9.84395
145.013,36.03953,6.282053,22.31566,3.864395,-4.017624,-5.521744,60,62,0.1458664,12.04364,36.6609,0.4322448,291.2784,4.692818,0.230655,-0.3879869,-0.7924368,-2.999862,-34.73391,-17.36276,-10.70614,8.954773,76.86275,1.11,1574,25,23,0,35.68628,35.29412,1.345996,22.12043,0.14,18.93859,259.5664,342.346,10.83112,5.656972,359,74,4296,0.97,1.372256,1.003906,1.389824,1.042969,0,0,0,0,0,0,0,0,0,0,0,0,13.1,0,0,0,0,0,0,0,0,0,56,32,0,0,0,0,0,0,0,3,0,0,0,0,0,0,0,0,0,0,0,0,0,0,0,0,0,0,0,0,0,0,0,0,0,0,0,0,0,0,0,0,0,0,0,0,0,0,0,0,0,0,0,0,0,0,0,13.1,0.007164678,0,19.89771,1.665257,0.0424602,9.651915,2.422305,2,9.84395
146.015,36.03953,6.282053,22.31566,-15.04034,-13.14426,4.749359,60,62,0.1458664,12.04364,36.6609,0.4322448,291.2784,4.692818,0.1605705,-0.974598,0.1914517,-1.605369,-36.39911,-17.41894,-9.565588,10.38042,76.86275,1.11,1574,25,23,0,35.68628,35.29412,1.345996,22.12043,0.14,18.93859,259.5664,342.3016,10.83112,5.656972,359,74,4296,0.97,1.372256,1.003906,1.389824,1.042969,0,0,0,0,0,0,0,0,0,0,0,0,13.1,0,0,0,0,0,0,0,0,0,56,32,0,0,0,0,0,0,0,3,0,0,0,0,0,0,0,0,0,0,0,0,0,0,0,0,0,0,0,0,0,0,0,0,0,0,0,0,0,0,0,0,0,0,0,0,0,0,0,0,0,0,0,0,0,0,0,13.1,0.007164678,0,19.89771,1.665257,0.0424602,9.651915,2.422305,2,9.84395
147.013,36.6609,5.172076,22.32261,-0.2239685,11.7738,-5.268555,60,62,0.1572916,9.822046,36.6609,0.4391911,235.7477,3.863643,-0.2677569,0.3287938,0.9186925,-1.332056,-36.49598,-17.76109,-9.160833,10.85443,73.72549,0.98,1589,25,23,0,32.15686,32.15686,1.153635,19.71586,0.01,15.59233,259.1557,342.523,8.766223,5.657597,359,74,4296,0.97,1.364448,0.9726563,1.375184,1.015625,0,0,0,0,0,0,0,0,0,0,0,0,13.1,0,0,0,0,0,0,0,0,0,56,32,0,0,0,0,0,0,0,3,0,0,0,0,0,0,0,0,0,0,0,0,0,0,0,0,0,0,0,0,0,0,0,0,0,0,0,0,0,0,0,0,0,0,0,0,0,0,0,0,0,0,0,0,0,0,0,13.1,0.03585634,0,19.7845,1.6947,0.04314255,9.636643,2.451023,2,9.84395
148.013,36.6609,5.172076,22.32261,10.44904,6.289963,-5.631592,60,62,0.1572916,9.822046,36.6609,0.4391911,235.7477,3.863643,-0.2749861,-0.05921538,1.358769,-3.904726,-36.5851,-16.67998,-10.01657,9.736298,73.72549,0.98,1589,25,23,0,32.15686,32.15686,1.153635,19.71586,0.01,15.59233,259.1557,342.4374,8.766223,5.657597,359,74,4296,0.97,1.364448,0.9726563,1.375184,1.015625,0,0,0,0,0,0,0,0,0,0,0,0,13.1,0,0,0,0,0,0,0,0,0,56,32,0,0,0,0,0,0,0,3,0,0,0,0,0,0,0,0,0,0,0,0,0,0,0,0,0,0,0,0,0,0,0,0,0,0,0,0,0,0,0,0,0,0,0,0,0,0,0,0,0,0,0,0,0,0,0,13.1,0.03585634,0,19.7845,1.6947,0.04314255,9.636643,2.451023,2,9.84395
149.013,36.03953,4.015818,22.32784,2.289383,1.865204,6.389664,60,62,-0.002309685,7.643087,36.6609,0.4444248,186.2004,2.999896,-0.03794662,-0.2810338,-0.8366418,-2.865552,-35.53463,-17.07785,-10.06609,10.31635,80.78432,0.86,1585.5,24,23,0,29.01961,28.62745,0.9250319,17.26357,-0.11,12.10654,257.966,342.0262,6.923819,5.65784,359,74,4296,0.97,1.291248,0.8046875,1.306376,0.8632813,0,0,0,0,0,0,0,0,0,0,0,0,13.1,0,0,0,0,0,0,0,0,0,56,32,0,0,0,0,0,0,0,3,0,0,0,0,0,0,0,0,0,0,0,0,0,0,0,0,0,0,0,0,0,0,0,0,0,0,0,0,0,0,0,0,0,0,0,0,0,0,0,0,0,0,0,0,0,0,0,13.1,0.05194449,0,18.7231,1.722804,0.04365666,9.592404,2.486358,2,9.84395
150.013,36.03953,4.168591,22.3344,-13.09436,-7.992202,6.726028,60,62,-0.07962064,8.001987,36.6609,0.4509838,193.284,3.114021,-0.3554637,0.5914987,-0.1524785,-1.794362,-36.45712,-17.09425,-9.254026,10.71924,85.09804,0.87,1572,24,23,0,30.19608,30.19608,0.8753086,17.37387,-0.1,12.56711,256.7396,342.3178,7.187222,5.658199,359,74,4296,0.97,1.289784,0.8125,1.30052,0.8398438,0,0,0,0,0,0,0,0,0,0,0,0,13.1,0,0,0,0,0,0,0,0,0,56,32,0,0,0,0,0,0,0,3,0,0,0,0,0,0,0,0,0,0,0,0,0,0,0,0,0,0,0,0,0,0,0,0,0,0,0,0,0,0,0,0,0,0,0,0,0,0,0,0,0,0,0,0,0,0,0,13.1,0.06735955,0,18.70187,1.75658,0.04430096,9.546803,2.515034,2,9.84395
151.013,36.03953,4.168591,22.3344,-6.523392,5.358536,-2.506531,60,62,-0.07962064,8.001987,36.6609,0.4509838,193.284,3.114021,0.5184968,0.1756043,0.8988131,2.398537,-38.93932,-18.50962,-8.032347,13.81772,85.09804,0.87,1572,24,23,0,30.19608,30.19608,0.8753086,17.37387,-0.1,12.56711,256.7396,342.7046,7.187222,5.658199,359,74,4296,0.97,1.289784,0.8125,1.30052,0.8398438,0,0,0,0,0,0,0,0,0,0,0,0,13.1,0,0,0,0,0,0,0,0,0,56,32,0,0,0,0,0,0,0,3,0,0,0,0,0,0,0,0,0,0,0,0,0,0,0,0,0,0,0,0,0,0,0,0,0,0,0,0,0,0,0,0,0,0,0,0,0,0,0,0,0,0,0,0,0,0,0,13.1,0.06735955,0,18.70187,1.75658,0.04430096,9.546803,2.515034,2,9.84395
152.013,36.03953,5.277892,22.34123,-5.995514,-4.968918,3.933945,60,62,2.373102E-15,10.18973,36.6609,0.4578117,244.7187,3.94269,0.09479424,-0.07718348,0.737996,1.249717,-38.52008,-19.04263,-8.425985,12.40063,70.98039,0.97,1563,24,23,0,31.76471,34.11765,1.061093,19.25997,0,15.91133,256.5273,342.8076,9.099807,5.658847,359,74,4296,0.97,1.315648,0.8867188,1.351272,0.9726563,0,0,0,0,0,0,0,0,0,0,0,0,13.1,0,0,0,0,0,0,0,0,0,56,32,0,0,0,0,0,0,0,3,0,0,0,0,0,0,0,0,0,0,0,0,0,0,0,0,0,0,0,0,0,0,0,0,0,0,0,0,0,0,0,0,0,0,0,0,0,0,0,0,0,0,0,0,0,0,0,13.1,0.08311823,0,19.0769,1.784651,0.04497167,9.538908,2.54509,2,9.84395
153.015,36.03953,5.277892,22.34123,-20.56248,-8.01535,13.52,60,62,2.373102E-15,10.18973,36.6609,0.4578117,244.7187,3.94269,-1.624626,-1.021826,-1.823584,1.365298,-38.01585,-19.49639,-7.818655,11.24326,70.98039,0.97,1563,24,23,0,31.76471,34.11765,1.061093,19.25997,0,15.91133,256.5273,343.376,9.099807,5.658847,359,74,4296,0.97,1.315648,0.8867188,1.351272,0.9726563,0,0,0,0,0,0,0,0,0,0,0,0,13.1,0,0,0,0,0,0,0,0,0,56,32,0,0,0,0,0,0,0,3,0,0,0,0,0,0,0,0,0,0,0,0,0,0,0,0,0,0,0,0,0,0,0,0,0,0,0,0,0,0,0,0,0,0,0,0,0,0,0,0,0,0,0,0,0,0,0,13.1,0.08311823,0,19.0769,1.784651,0.04497167,9.538908,2.54509,2,9.84395
154.013,36.03953,4.811572,22.34772,-5.942703,-3.508682,3.232361,60,62,2.373102E-15,9.274593,36.6609,0.4643099,223.0969,3.594339,0.06606752,0.3634195,0.3168204,2.171444,-38.89591,-19.1357,-7.519922,12.0215,73.33334,1.03,1565.5,24,23,0,34.11765,35.68628,1.166419,20.48402,0.06,14.50551,256.016,343.5401,8.295807,5.659377,359,74,4296,0.97,1.304424,0.8554688,1.33468,0.9296875,0,0,0,0,0,0,0,0,0,0,0,0,13.1,0,0,0,0,0,0,0,0,0,56,32,0,0,0,0,0,0,0,3,0,0,0,0,0,0,0,0,0,0,0,0,0,0,0,0,0,0,0,0,0,0,0,0,0,0,0,0,0,0,0,0,0,0,0,0,0,0,0,0,0,0,0,0,0,0,0,13.1,0.05677284,0,18.91415,1.813597,0.04561001,9.519897,2.574152,2,9.84395
155.013,36.03953,4.811572,22.34772,-8.007431,2.941086,6.260422,60,62,2.373102E-15,9.274593,36.6609,0.4643099,223.0969,3.594339,0.07872237,0.1970513,1.393799,3.01193,-39.17795,-19.04717,-6.752024,12.20963,73.33334,1.03,1565.5,24,23,0,34.11765,35.68628,1.166419,20.48402,0.06,14.50551,256.016,343.8112,8.295807,5.659377,359,74,4296,0.97,1.304424,0.8554688,1.33468,0.9296875,0,0,0,0,0,0,0,0,0,0,0,0,13.1,0,0,0,0,0,0,0,0,0,56,32,0,0,0,0,0,0,0,3,0,0,0,0,0,0,0,0,0,0,0,0,0,0,0,0,0,0,0,0,0,0,0,0,0,0,0,0,0,0,0,0,0,0,0,0,0,0,0,0,0,0,0,0,0,0,0,13.1,0.05677284,0,18.91415,1.813597,0.04561001,9.519897,2.574152,2,9.84395
156.013,36.03953,4.811572,22.34772,1.807663,-4.486572,-0.4623566,60,62,2.373102E-15,9.274593,36.6609,0.4643099,223.0969,3.594339,-0.6916009,-1.224875,-1.521209,1.20163,-38.71203,-18.93658,-7.140112,10.1257,73.33334,1.03,1565.5,24,23,0,34.11765,35.68628,1.166419,20.48402,0.06,14.50551,256.016,343.916,8.295807,5.659377,359,74,4296,0.97,1.304424,0.8554688,1.33468,0.9296875,0,0,0,0,0,0,0,0,0,0,0,0,13.1,0,0,0,0,0,0,0,0,0,56,32,0,0,0,0,0,0,0,3,0,0,0,0,0,0,0,0,0,0,0,0,0,0,0,0,0,0,0,0,0,0,0,0,0,0,0,0,0,0,0,0,0,0,0,0,0,0,0,0,0,0,0,0,0,0,0,13.1,0.05677284,0,18.91415,1.813597,0.04561001,9.519897,2.574152,2,9.84395
157.013,36.03953,5.22864,22.35449,7.824097,14.00844,-1.672897,65,67,2.373102E-15,10.00185,36.6609,0.471071,242.435,3.905897,-0.06609771,-0.3225735,-0.1137974,-0.2364104,-37.9251,-18.65685,-6.932394,8.326019,72.54902,1.05,1577.5,25,23,0,35.68628,37.64706,1.224896,21.04183,0.08,15.76285,255.7867,344.1017,9.014889,5.660007,379,74,4297,0.97,1.282952,0.796875,1.240496,0.7070313,0,0,0,0,0,0,0,0,0,0,0,0,13.1,0,0,0,0,0,0,0,0,0,62,35,0,0,0,0,0,0,0,3,0,0,0,0,0,0,0,0,0,0,0,0,0,0,0,0,0,0,0,0,0,0,0,0,0,0,0,0,0,0,0,0,0,0,0,0,0,0,0,0,0,0,0,0,0,0,0,13.1,0.05677284,0,18.6028,1.841656,0.04627417,9.511368,2.626613,2,9.84395
158.013,36.03953,5.22864,22.35449,-9.721451,-15.77126,2.121658,65,67,2.373102E-15,10.00185,36.6609,0.471071,242.435,3.905897,-0.7183162,-0.1917562,-1.433736,1.049092,-38.18831,-18.57034,-5.94441,7.752365,72.54902,1.05,1577.5,25,23,0,35.68628,37.64706,1.224896,21.04183,0.08,15.76285,255.7867,344.3884,9.014889,5.660007,379,74,4297,0.97,1.282952,0.796875,1.240496,0.7070313,0,0,0,0,0,0,0,0,0,0,0,0,13.1,0,0,0,0,0,0,0,0,0,62,35,0,0,0,0,0,0,0,3,0,0,0,0,0,0,0,0,0,0,0,0,0,0,0,0,0,0,0,0,0,0,0,0,0,0,0,0,0,0,0,0,0,0,0,0,0,0,0,0,0,0,0,0,0,0,0,13.1,0.05677284,0,18.6028,1.841656,0.04627417,9.511368,2.626613,2,9.84395
159.013,36.6609,5.631383,22.36777,-4.518799,5.088593,-1.611023,65,67,0.04411598,10.52539,36.6609,0.4843582,256.6833,4.206755,0.1853779,0.2308482,-0.7262868,1.496417,-37.92516,-18.63653,-4.421141,7.520111,74.90196,1.1,1614.5,25,23,0,34.90196,34.5098,1.327817,22.48519,0.13,16.97701,255.8339,344.2646,9.54471,5.661383,379,74,4297,0.97,1.414224,1.066406,1.369328,0.984375,0,0,0,0,0,0,0,0,0,0,0,0,13.1,0,0,0,0,0,0,0,0,0,62,35,0,0,0,0,0,0,0,3,0,0,0,0,0,0,0,0,0,0,0,0,0,0,0,0,0,0,0,0,0,0,0,0,0,0,0,0,0,0,0,0,0,0,0,0,0,0,0,0,0,0,0,0,0,0,0,13.1,0.05320329,0,20.50625,1.893253,0.04757939,9.513124,2.655683,2,9.84395
160.014,36.6609,5.631383,22.36777,-14.20419,-17.08559,4.8983,65,67,0.04411598,10.52539,36.6609,0.4843582,256.6833,4.206755,-1.41182,0.5944917,0.755932,-0.2491675,-38.1498,-17.1254,-5.419386,5.665131,74.90196,1.1,1614.5,25,23,0,34.90196,34.5098,1.327817,22.48519,0.13,16.97701,255.8339,344.3689,9.54471,5.661383,379,74,4297,0.97,1.414224,1.066406,1.369328,0.984375,0,0,0,0,0,0,0,0,0,0,0,0,13.1,0,0,0,0,0,0,0,0,0,62,35,0,0,0,0,0,0,0,3,0,0,0,0,0,0,0,0,0,0,0,0,0,0,0,0,0,0,0,0,0,0,0,0,0,0,0,0,0,0,0,0,0,0,0,0,0,0,0,0,0,0,0,0,0,0,0,13.1,0.05320329,0,20.50625,1.893253,0.04757939,9.513124,2.655683,2,9.84395
161.013,37.28227,5.022596,22.37427,2.436554,-11.12074,4.496948,65,67,0.1238259,9.318269,37.28227,0.4908572,225.1187,3.751979,0.1231964,-0.0565383,-0.4658084,0.1375514,-37.60968,-17.64591,-4.535185,5.708328,72.94118,0.99,1626.5,25,23,0,33.72549,36.07843,1.120782,20.38708,0.02,15.14169,255.3498,344.4869,8.370988,5.661909,379,74,4297,0.97,1.287344,0.8242188,1.27124,0.7773438,0,0,0,0,0,0,0,0,0,0,0,0,13.1,0,0,0,0,0,0,0,0,0,62,35,0,0,0,0,0,0,0,3,0,0,0,0,0,0,0,0,0,0,0,0,0,0,0,0,0,0,0,0,0,0,0,0,0,0,0,0,0,0,0,0,0,0,0,0,0,0,0,0,0,0,0,0,0,0,0,13.1,0.05347651,0,18.66649,1.922293,0.04821779,9.495122,2.6858,2,9.84395
162.015,37.90364,5.574291,22.38179,-8.069672,-9.564011,8.561874,65,67,0.1570449,10.2224,37.90364,0.4983764,245.7505,4.164106,-0.06324146,-0.1231545,-0.9558884,0.04000232,-36.78032,-17.60199,-4.21559,4.42923,74.11765,1.08,1645.5,25,23,0,36.07843,36.07843,1.267906,22.50025,0.11,16.80489,255.2211,344.113,9.138175,5.662639,379,74,4297,0.97,1.232688,0.6992188,1.212192,0.6523438,0,0,0,0,0,0,0,0,0,0,0,0,13.1,0,0,0,0,0,0,0,0,0,62,35,0,0,0,0,0,0,0,3,0,0,0,0,0,0,0,0,0,0,0,0,0,0,0,0,0,0,0,0,0,0,0,0,0,0,0,0,0,0,0,0,0,0,0,0,0,0,0,0,0,0,0,0,0,0,0,13.1,0.05576635,0,17.87398,1.952724,0.04895642,9.490335,2.714542,2,9.84395
163.014,37.90364,5.574291,22.38179,-1.87645,2.642899,-0.8542175,65,67,0.1570449,10.2224,37.90364,0.4983764,245.7505,4.164106,-0.09224833,0.2963005,0.5400956,-0.04812979,-36.73898,-16.9298,-2.823362,3.283783,74.11765,1.08,1645.5,25,23,0,36.07843,36.07843,1.267906,22.50025,0.11,16.80489,255.2211,344.0202,9.138175,5.662639,379,74,4297,0.97,1.232688,0.6992188,1.212192,0.6523438,0,0,0,0,0,0,0,0,0,0,0,0,13.1,0,0,0,0,0,0,0,0,0,62,35,0,0,0,0,0,0,0,3,0,0,0,0,0,0,0,0,0,0,0,0,0,0,0,0,0,0,0,0,0,0,0,0,0,0,0,0,0,0,0,0,0,0,0,0,0,0,0,0,0,0,0,0,0,0,0,13.1,0.05576635,0,17.87398,1.952724,0.04895642,9.490335,2.714542,2,9.84395
164.014,37.90364,5.529698,22.38897,1.158722,-0.4136658,2.453491,65,67,0.07733496,10.02487,37.90364,0.5055529,243.7846,4.130795,-0.4791784,0.005028703,0.8627607,-2.309576,-35.99832,-15.99185,-3.293575,1.167877,71.76471,1.07,1664.5,25,23,0,34.5098,34.5098,1.223506,22.54931,0.1,16.67046,255.0276,343.9673,9.065073,5.663313,379,74,4297,0.97,1.301984,0.8476563,1.260992,0.7617188,0,0,0,0,0,0,0,0,0,0,0,0,13.1,0,0,0,0,0,0,0,0,0,62,35,0,0,0,0,0,0,0,3,0,0,0,0,0,0,0,0,0,0,0,0,0,0,0,0,0,0,0,0,0,0,0,0,0,0,0,0,0,0,0,0,0,0,0,0,0,0,0,0,0,0,0,0,0,0,0,13.1,0.03977023,0,18.87877,1.982345,0.04966138,9.483143,2.749484,2,9.84395
165.014,37.90364,5.529698,22.38897,-14.95108,-6.366684,-0.3427887,65,67,0.07733496,10.02487,37.90364,0.5055529,243.7846,4.130795,-0.4200743,0.5039468,0.3513369,-3.225712,-36.13284,-15.24426,-3.995394,0.774292,71.76471,1.07,1664.5,25,23,0,34.5098,34.5098,1.223506,22.54931,0.1,16.67046,255.0276,343.8312,9.065073,5.663313,379,74,4297,0.97,1.301984,0.8476563,1.260992,0.7617188,0,0,0,0,0,0,0,0,0,0,0,0,13.1,0,0,0,0,0,0,0,0,0,62,35,0,0,0,0,0,0,0,3,0,0,0,0,0,0,0,0,0,0,0,0,0,0,0,0,0,0,0,0,0,0,0,0,0,0,0,0,0,0,0,0,0,0,0,0,0,0,0,0,0,0,0,0,0,0,0,13.1,0.03977023,0,18.87877,1.982345,0.04966138,9.483143,2.749484,2,9.84395
166.014,38.52501,5.169309,22.39708,5.150009,0.9008789,-3.101364,65,67,0.06613705,9.268499,38.52501,0.5136666,224.2206,3.861577,0.4133075,-0.2846734,-0.7099431,-1.307865,-36.46601,-16.39358,-2.785759,2.679749,72.94118,1.04,1683,25,23,0,33.72549,33.33333,1.167783,22.16069,0.07,15.58399,254.4778,343.8874,8.337589,5.663972,379,74,4297,0.97,1.322968,0.8945313,1.279048,0.8203125,0,0,0,0,0,0,0,0,0,0,0,0,13.1,0,0,0,0,0,0,0,0,0,62,35,0,0,0,0,0,0,0,3,0,0,0,0,0,0,0,0,0,0,0,0,0,0,0,0,0,0,0,0,0,0,0,0,0,0,0,0,0,0,0,0,0,0,0,0,0,0,0,0,0,0,0,0,0,0,0,13.1,0.03753545,0,19.18304,2.018512,0.05045841,9.462697,2.778847,2,9.84395
167.014,38.52501,5.169309,22.39708,-10.68761,-8.196228,7.704834,65,67,0.06613705,9.268499,38.52501,0.5136666,224.2206,3.861577,0.1978942,0.1402202,0.1063961,-2.82476,-36.47798,-15.6562,-2.785046,1.259186,72.94118,1.04,1683,25,23,0,33.72549,33.33333,1.167783,22.16069,0.07,15.58399,254.4778,343.8181,8.337589,5.663972,379,74,4297,0.97,1.322968,0.8945313,1.279048,0.8203125,0,0,0,0,0,0,0,0,0,0,0,0,13.1,0,0,0,0,0,0,0,0,0,62,35,0,0,0,0,0,0,0,3,0,0,0,0,0,0,0,0,0,0,0,0,0,0,0,0,0,0,0,0,0,0,0,0,0,0,0,0,0,0,0,0,0,0,0,0,0,0,0,0,0,0,0,0,0,0,0,13.1,0.03753545,0,19.18304,2.018512,0.05045841,9.462697,2.778847,2,9.84395
168.014,38.52501,4.707511,22.4032,-10.56487,-12.61757,-7.824173,65,67,0.06613705,8.432985,38.52501,0.5197842,204.1899,3.516604,-0.01996703,-0.2468523,0.6886049,-6.962884,-32.91867,-14.83663,-6.150759,-0.1283875,67.45098,0.89,1684.5,25,23,0,29.41176,29.01961,1.034805,18.98134,-0.08,14.1918,253.7497,343.9159,7.592754,5.664367,379,74,4297,0.97,1.196576,0.59375,1.169248,0.5273438,0,0,0,0,0,0,0,0,0,0,0,0,13.1,0,0,0,0,0,0,0,0,0,62,35,0,0,0,0,0,0,0,3,0,0,0,0,0,0,0,0,0,0,0,0,0,0,0,0,0,0,0,0,0,0,0,0,0,0,0,0,0,0,0,0,0,0,0,0,0,0,0,0,0,0,0,0,0,0,0,13.1,0.05345958,0,17.35035,2.048413,0.05105935,9.435624,2.808583,2,9.84395
169.014,38.52501,4.707511,22.4032,8.372345,18.76733,3.431656,65,67,0.06613705,8.432985,38.52501,0.5197842,204.1899,3.516604,-0.16881,-0.3476419,-0.7431054,-6.601087,-33.60434,-14.11447,-3.495193,-0.05036926,67.45098,0.89,1684.5,25,23,0,29.41176,29.01961,1.034805,18.98134,-0.08,14.1918,253.7497,343.7754,7.592754,5.664367,379,74,4297,0.97,1.196576,0.59375,1.169248,0.5273438,0,0,0,0,0,0,0,0,0,0,0,0,13.1,0,0,0,0,0,0,0,0,0,62,35,0,0,0,0,0,0,0,3,0,0,0,0,0,0,0,0,0,0,0,0,0,0,0,0,0,0,0,0,0,0,0,0,0,0,0,0,0,0,0,0,0,0,0,0,0,0,0,0,0,0,0,0,0,0,0,13.1,0.05345958,0,17.35035,2.048413,0.05105935,9.435624,2.808583,2,9.84395
170.014,38.52501,4.167604,22.4088,-4.83905,-14.36084,-6.196335,65,67,2.373102E-15,7.510388,38.52501,0.5253834,180.7713,3.113283,0.03357995,0.2456187,-1.730818,-7.107462,-33.20987,-13.42456,-5.810843,-0.7223511,73.33334,0.91,1674.5,25,23,0,30.58824,30.58824,0.9898091,19.29267,-0.06,12.56413,252.6543,343.6924,6.721938,5.664587,379,74,4297,0.97,1.211216,0.6367188,1.176568,0.5625,0,0,0,0,0,0,0,0,0,0,0,0,13.1,0,0,0,0,0,0,0,0,0,62,35,0,0,0,0,0,0,0,3,0,0,0,0,0,0,0,0,0,0,0,0,0,0,0,0,0,0,0,0,0,0,0,0,0,0,0,0,0,0,0,0,0,0,0,0,0,0,0,0,0,0,0,0,0,0,0,13.1,0.05345958,0,17.56263,2.079455,0.05160937,9.394892,2.837667,2,9.84395
171.014,38.52501,4.167604,22.4088,-12.02956,-12.98608,-1.524857,65,67,2.373102E-15,7.510388,38.52501,0.5253834,180.7713,3.113283,-0.04473019,0.03288435,-0.8024475,-6.446155,-34.14874,-14.47444,-5.775503,0.233139,73.33334,0.91,1674.5,25,23,0,30.58824,30.58824,0.9898091,19.29267,-0.06,12.56413,252.6543,343.7103,6.721938,5.664587,379,74,4297,0.97,1.211216,0.6367188,1.176568,0.5625,0,0,0,0,0,0,0,0,0,0,0,0,13.1,0,0,0,0,0,0,0,0,0,62,35,0,0,0,0,0,0,0,3,0,0,0,0,0,0,0,0,0,0,0,0,0,0,0,0,0,0,0,0,0,0,0,0,0,0,0,0,0,0,0,0,0,0,0,0,0,0,0,0,0,0,0,0,0,0,0,13.1,0.05345958,0,17.56263,2.079455,0.05160937,9.394892,2.837667,2,9.84395
172.014,38.52501,4.451642,22.41459,-1.321899,4.718994,2.072266,65,67,2.373102E-15,8.000747,38.52501,0.5311738,193.0915,3.325464,-0.5237257,0.5478325,-1.224235,-7.733131,-32.49843,-12.9413,-5.157728,-1.063416,76.47059,0.91,1679,24,23,0,30.58824,30.58824,0.978268,19.34451,-0.06,13.42042,251.808,343.8456,7.180061,5.664896,379,74,4297,0.97,1.213168,0.6367188,1.1834,0.578125,0,0,0,0,0,0,0,0,0,0,0,0,13.1,0,0,0,0,0,0,0,0,0,62,35,0,0,0,0,0,0,0,3,0,0,0,0,0,0,0,0,0,0,0,0,0,0,0,0,0,0,0,0,0,0,0,0,0,0,0,0,0,0,0,0,0,0,0,0,0,0,0,0,0,0,0,0,0,0,0,13.1,0.05345958,0,17.59094,2.10944,0.05217817,9.363422,2.87262,2,9.84395
173.016,38.52501,4.451642,22.41459,-6.632233,4.122971,-5.164368,65,67,2.373102E-15,8.000747,38.52501,0.5311738,193.0915,3.325464,0.237062,-0.4037195,0.3268517,-7.210275,-33.217,-14.05036,-4.425425,-1.954346,76.47059,0.91,1679,24,23,0,30.58824,30.58824,0.978268,19.34451,-0.06,13.42042,251.808,343.8625,7.180061,5.664896,379,74,4297,0.97,1.213168,0.6367188,1.1834,0.578125,0,0,0,0,0,0,0,0,0,0,0,0,13.1,0,0,0,0,0,0,0,0,0,62,35,0,0,0,0,0,0,0,3,0,0,0,0,0,0,0,0,0,0,0,0,0,0,0,0,0,0,0,0,0,0,0,0,0,0,0,0,0,0,0,0,0,0,0,0,0,0,0,0,0,0,0,0,0,0,0,13.1,0.05345958,0,17.59094,2.10944,0.05217817,9.363422,2.87262,2,9.84395
174.014,38.52501,5.638098,22.42345,-5.764023,-5.67807,0.9331818,65,67,2.373102E-15,10.18772,38.52501,0.5400305,244.5544,4.211771,0.0776077,-0.09942944,-0.03780139,-6.927667,-33.92516,-13.31036,-5.245718,-0.7823792,62.7451,1.03,1670,24,23,0,31.76471,31.76471,1.181007,21.85136,0.06,16.99725,251.7076,343.8152,9.093699,5.665747,379,74,4297,0.97,1.213168,0.6328125,1.184376,0.5742188,0,0,0,0,0,0,0,0,0,0,0,0,13.1,0,0,0,0,0,0,0,0,0,62,35,0,0,0,0,0,0,0,3,0,0,0,0,0,0,0,0,0,0,0,0,0,0,0,0,0,0,0,0,0,0,0,0,0,0,0,0,0,0,0,0,0,0,0,0,0,0,0,0,0,0,0,0,0,0,0,13.1,0.05345958,0,17.59094,2.145467,0.05304818,9.359688,2.901649,2,9.84395
175.014,38.52501,5.638098,22.42345,16.02084,7.883713,-7.957565,65,67,2.373102E-15,10.18772,38.52501,0.5400305,244.5544,4.211771,-0.7092325,-0.5642805,-0.3289314,-7.906272,-33.07975,-12.39354,-5.574308,-1.120895,62.7451,1.03,1670,24,23,0,31.76471,31.76471,1.181007,21.85136,0.06,16.99725,251.7076,343.9391,9.093699,5.665747,379,74,4297,0.97,1.213168,0.6328125,1.184376,0.5742188,0,0,0,0,0,0,0,0,0,0,0,0,13.1,0,0,0,0,0,0,0,0,0,62,35,0,0,0,0,0,0,0,3,0,0,0,0,0,0,0,0,0,0,0,0,0,0,0,0,0,0,0,0,0,0,0,0,0,0,0,0,0,0,0,0,0,0,0,0,0,0,0,0,0,0,0,0,0,0,0,13.1,0.05345958,0,17.59094,2.145467,0.05304818,9.359688,2.901649,2,9.84395
176.014,38.52501,4.03478,22.42868,3.096786,15.95364,-2.202148,65,67,2.373102E-15,7.260187,38.52501,0.5452694,175.01,3.01406,0.355646,-0.6173837,0.2334364,-7.471342,-33.631,-13.01847,-5.335337,-0.3538055,74.11765,0.97,1677,24,23,0,31.76471,31.76471,1.035592,20.66473,0,12.16371,250.6523,344.2039,6.507705,5.665918,398,74,4297,0.97,1.299056,0.8398438,1.25416,0.7460938,0,0,0,0,0,0,0,0,0,0,0,0,13.06,0,0,0,0,0,0,0,0,0,64,34,0,0,0,0,0,0,0,3,0,0,0,0,0,0,0,0,0,0,0,0,0,0,0,0,0,0,0,0,0,0,0,0,0,0,0,0,0,0,0,0,0,0,0,0,0,0,0,0,0,0,0,0,0,0,0,13.1,0.05345958,0,18.83631,2.175401,0.05356281,9.320447,2.939054,2,9.84395
177.014,38.52501,4.03478,22.42868,1.796173,0.6000061,-2.673553,65,67,2.373102E-15,7.260187,38.52501,0.5452694,175.01,3.01406,0.4245431,1.201266,-0.3534369,-7.247663,-33.41457,-12.65736,-5.243998,-1.839905,74.11765,0.97,1677,24,23,0,31.76471,31.76471,1.035592,20.66473,0,12.16371,250.6523,344.2849,6.507705,5.665918,398,74,4297,0.97,1.299056,0.8398438,1.25416,0.7460938,0,0,0,0,0,0,0,0,0,0,0,0,13.06,0,0,0,0,0,0,0,0,0,64,34,0,0,0,0,0,0,0,3,0,0,0,0,0,0,0,0,0,0,0,0,0,0,0,0,0,0,0,0,0,0,0,0,0,0,0,0,0,0,0,0,0,0,0,0,0,0,0,0,0,0,0,0,0,0,0,13.1,0.05345958,0,18.83631,2.175401,0.05356281,9.320447,2.939054,2,9.84395
178.015,38.52501,5.095827,22.43723,6.857834,-5.578461,-0.1085358,65,67,2.373102E-15,9.161242,38.52501,0.5538187,221.0332,3.806684,0.06654001,-0.4715488,-0.07718572,-6.700648,-34.45254,-13.18411,-5.186956,-0.7988892,68.23529,1.02,1678.5,24,23,0,32.15686,32.54902,1.102618,21.74935,0.05,15.36246,250.1132,344.137,8.219069,5.666582,398,74,4297,0.97,1.27612,0.78125,1.223904,0.6796875,0,0,0,0,0,0,0,0,0,0,0,0,13.06,0,0,0,0,0,0,0,0,0,64,34,0,0,0,0,0,0,0,3,0,0,0,0,0,0,0,0,0,0,0,0,0,0,0,0,0,0,0,0,0,0,0,0,0,0,0,0,0,0,0,0,0,0,0,0,0,0,0,0,0,0,0,0,0,0,0,13.1,0.04463638,0,18.50374,2.214272,0.05440262,9.300401,2.968092,2,9.84395
179.015,38.52501,5.095827,22.43723,-4.742142,-5.321518,0.5190582,65,67,2.373102E-15,9.161242,38.52501,0.5538187,221.0332,3.806684,0.2212038,0.04999482,-1.919546,-6.76331,-32.72749,-12.78608,-5.010595,-2.065964,68.23529,1.02,1678.5,24,23,0,32.15686,32.54902,1.102618,21.74935,0.05,15.36246,250.1132,344.2127,8.219069,5.666582,398,74,4297,0.97,1.27612,0.78125,1.223904,0.6796875,0,0,0,0,0,0,0,0,0,0,0,0,13.06,0,0,0,0,0,0,0,0,0,64,34,0,0,0,0,0,0,0,3,0,0,0,0,0,0,0,0,0,0,0,0,0,0,0,0,0,0,0,0,0,0,0,0,0,0,0,0,0,0,0,0,0,0,0,0,0,0,0,0,0,0,0,0,0,0,0,13.1,0.04463638,0,18.50374,2.214272,0.05440262,9.300401,2.968092,2,9.84395
180.016,38.52501,4.565573,22.44316,-5.043594,-6.05806,0.8268433,65,67,2.373102E-15,8.188441,38.52501,0.5597406,198.0333,3.410573,0.7867077,-0.5338091,1.121766,-5.448267,-34.5634,-14.25518,-4.533892,-1.021469,73.72549,1,1682.5,24,23,0,32.15686,31.76471,1.072087,21.37371,0.03,13.7639,249.4185,344.2092,7.363822,5.666926,398,74,4297,0.97,1.26636,0.765625,1.23952,0.7226563,0,0,0,0,0,0,0,0,0,0,0,0,13.06,0,0,0,0,0,0,0,0,0,64,34,0,0,0,0,0,0,0,3,0,0,0,0,0,0,0,0,0,0,0,0,0,0,0,0,0,0,0,0,0,0,0,0,0,0,0,0,0,0,0,0,0,0,0,0,0,0,0,0,0,0,0,0,0,0,0,13.1,0.0286944,0,18.36222,2.244182,0.05498434,9.274569,3.003094,2,9.84395
181.015,38.52501,4.771077,22.45065,9.865753,12.34189,4.468628,65,67,2.373102E-15,8.572301,38.52501,0.567234,206.9471,3.564089,-0.1189484,-0.8354045,0.2493191,-6.296365,-34.53795,-14.24783,-5.178892,-0.9064789,69.80392,0.95,1679.5,24,23,0,30.98039,30.98039,1.034448,20.26882,-0.02,14.38343,248.7457,344.2525,7.69528,5.667425,398,74,4297,0.97,1.240984,0.7070313,1.201456,0.6210938,0,0,0,0,0,0,0,0,0,0,0,0,13.06,0,0,0,0,0,0,0,0,0,64,34,0,0,0,0,0,0,0,3,0,0,0,0,0,0,0,0,0,0,0,0,0,0,0,0,0,0,0,0,0,0,0,0,0,0,0,0,0,0,0,0,0,0,0,0,0,0,0,0,0,0,0,0,0,0,0,13.1,0.01322741,0,17.99427,2.280377,0.05572043,9.24955,3.032842,2,9.84395
182.016,38.52501,4.771077,22.45065,8.817795,6.373795,-4.281311,65,67,2.373102E-15,8.572301,38.52501,0.567234,206.9471,3.564089,0.6907173,-0.471829,0.04884199,-5.163302,-34.46076,-15.30687,-4.700796,-0.5172882,69.80392,0.95,1679.5,24,23,0,30.98039,30.98039,1.034448,20.26882,-0.02,14.38343,248.7457,344.3123,7.69528,5.667425,398,74,4297,0.97,1.240984,0.7070313,1.201456,0.6210938,0,0,0,0,0,0,0,0,0,0,0,0,13.06,0,0,0,0,0,0,0,0,0,64,34,0,0,0,0,0,0,0,3,0,0,0,0,0,0,0,0,0,0,0,0,0,0,0,0,0,0,0,0,0,0,0,0,0,0,0,0,0,0,0,0,0,0,0,0,0,0,0,0,0,0,0,0,0,0,0,13.1,0.01322741,0,17.99427,2.280377,0.05572043,9.24955,3.032842,2,9.84395
183.015,38.52501,4.159753,22.45625,-10.29904,-5.435913,6.151459,65,67,2.373102E-15,7.505204,38.52501,0.5728363,180.4307,3.107418,-0.9958919,-0.08593702,0.1839796,-6.207628,-34.02502,-13.78473,-4.801146,-1.882065,71.37255,0.88,1672.5,24,23,0,29.80392,29.80392,0.9542736,18.69707,-0.09,12.54047,247.8872,344.4346,6.709275,5.667666,398,74,4297,0.97,1.217072,0.6445313,1.174616,0.5546875,0,0,0,0,0,0,0,0,0,0,0,0,13.06,0,0,0,0,0,0,0,0,0,64,34,0,0,0,0,0,0,0,3,0,0,0,0,0,0,0,0,0,0,0,0,0,0,0,0,0,0,0,0,0,0,0,0,0,0,0,0,0,0,0,0,0,0,0,0,0,0,0,0,0,0,0,0,0,0,0,13.1,0.01322741,0,17.64754,2.310875,0.05627076,9.217626,3.063246,2,9.84395
184.015,38.52501,4.159753,22.45625,-2.535553,-11.03673,-3.33902,65,67,2.373102E-15,7.505204,38.52501,0.5728363,180.4307,3.107418,0.3775285,0.1743754,0.4275272,-5.681362,-34.71298,-14.58023,-4.587084,-1.532166,71.37255,0.88,1672.5,24,23,0,29.80392,29.80392,0.9542736,18.69707,-0.09,12.54047,247.8872,344.4103,6.709275,5.667666,398,74,4297,0.97,1.217072,0.6445313,1.174616,0.5546875,0,0,0,0,0,0,0,0,0,0,0,0,13.06,0,0,0,0,0,0,0,0,0,64,34,0,0,0,0,0,0,0,3,0,0,0,0,0,0,0,0,0,0,0,0,0,0,0,0,0,0,0,0,0,0,0,0,0,0,0,0,0,0,0,0,0,0,0,0,0,0,0,0,0,0,0,0,0,0,0,13.1,0.01322741,0,17.64754,2.310875,0.05627076,9.217626,3.063246,2,9.84395
185.015,37.90364,3.962858,22.46157,14.84856,9.459595,-6.542664,65,67,-0.07596453,7.173547,38.52501,0.5781524,174.7082,2.960334,-0.472816,-0.4116184,-0.7567427,-6.340033,-34.07394,-13.93168,-5.365213,-0.8093109,78.03922,0.86,1667,24,23,0,29.41176,29.41176,0.8928456,18.21205,-0.11,11.94688,246.8779,344.5539,6.496484,5.667816,398,74,4297,0.97,1.174616,0.5390625,1.152656,0.5,0,0,0,0,0,0,0,0,0,0,0,0,13.06,0,0,0,0,0,0,0,0,0,64,34,0,0,0,0,0,0,0,3,0,0,0,0,0,0,0,0,0,0,0,0,0,0,0,0,0,0,0,0,0,0,0,0,0,0,0,0,0,0,0,0,0,0,0,0,0,0,0,0,0,0,0,0,0,0,0,13.1,-0.01519291,0,17.03193,2.341855,0.05679297,9.180099,3.092013,2,9.84395
186.015,37.90364,3.962858,22.46157,8.1362,4.707535,3.341614,65,67,-0.07596453,7.173547,38.52501,0.5781524,174.7082,2.960334,0.3131424,-0.2443423,0.04450985,-5.644127,-34.99107,-14.73494,-5.520521,-0.1500702,78.03922,0.86,1667,24,23,0,29.41176,29.41176,0.8928456,18.21205,-0.11,11.94688,246.8779,344.5738,6.496484,5.667816,398,74,4297,0.97,1.174616,0.5390625,1.152656,0.5,0,0,0,0,0,0,0,0,0,0,0,0,13.06,0,0,0,0,0,0,0,0,0,64,34,0,0,0,0,0,0,0,3,0,0,0,0,0,0,0,0,0,0,0,0,0,0,0,0,0,0,0,0,0,0,0,0,0,0,0,0,0,0,0,0,0,0,0,0,0,0,0,0,0,0,0,0,0,0,0,13.1,-0.01519291,0,17.03193,2.341855,0.05679297,9.180099,3.092013,2,9.84395
187.015,37.90364,4.337584,22.46721,4.376617,2.709442,-2.128723,65,67,-0.07596453,7.918374,38.52501,0.5837932,191.2285,3.240261,-0.8383908,0.02206069,-0.6828283,-7.023033,-34.407,-13.09975,-5.455366,-1.04776,74.90196,0.86,1653,24,24,0,29.41176,29.41176,0.8967358,18.0591,-0.11,13.07657,246.1847,344.8655,7.110787,5.668104,398,74,4297,0.97,1.192672,0.5820313,1.161928,0.5039063,0,0,0,0,0,0,0,0,0,0,0,0,13.06,0,0,0,0,0,0,0,0,0,64,34,0,0,0,0,0,0,0,3,0,0,0,0,0,0,0,0,0,0,0,0,0,0,0,0,0,0,0,0,0,0,0,0,0,0,0,0,0,0,0,0,0,0,0,0,0,0,0,0,0,0,0,0,0,0,0,13.1,-0.01519291,0,17.29374,2.371362,0.05734707,9.154322,3.127675,2,9.84395
188.015,37.90364,4.337584,22.46721,-0.641571,1.897766,-4.457748,65,67,-0.07596453,7.918374,38.52501,0.5837932,191.2285,3.240261,-0.3167947,0.0820045,0.1341286,-7.638955,-33.65331,-15.11009,-4.168585,-2.447342,74.90196,0.86,1653,24,24,0,29.41176,29.41176,0.8967358,18.0591,-0.11,13.07657,246.1847,344.8551,7.110787,5.668104,398,74,4297,0.97,1.192672,0.5820313,1.161928,0.5039063,0,0,0,0,0,0,0,0,0,0,0,0,13.06,0,0,0,0,0,0,0,0,0,64,34,0,0,0,0,0,0,0,3,0,0,0,0,0,0,0,0,0,0,0,0,0,0,0,0,0,0,0,0,0,0,0,0,0,0,0,0,0,0,0,0,0,0,0,0,0,0,0,0,0,0,0,0,0,0,0,13.1,-0.01519291,0,17.29374,2.371362,0.05734707,9.154322,3.127675,2,9.84395
