Time (sec),Vehicle speed (MPH),Fuel rate (l/hr),Total CO2 (kg), Rotation Rate X (deg/s), Rotation Rate Y (deg/s), Rotation Rate Z (deg/s), Engine coolant temperature (°C),Engine coolant temperature 1 (°C),Acceleration (m/s²),Engine Torque (kg•m),Max Speed (MPH),Total Trip CO2 (kg),Instant CO2 rate (g/km),CO2 flow (g/s), Accel X (m/s²), Accel Y (m/s²), Accel Z (m/s²), Roll (deg), Pitch (deg),Magnetometer X (µT), Magnetometer Y (µT), Magnetometer Z (µT),Calculated load value (%), Intake manifold absolute pressure (bar), Engine RPM (RPM), Intake air temperature (°C), Ambient air temperature (°C), Absolute throttle position B (%), Accelerator pedal position D (%), Accelerator pedal position E (%), Intake manifold absolute pressure (bar), Mass air flow rate (g/s), Boost (bar),Engine Power (kW),Average Trip CO2 Rate (g/km),Altitude (m),Instant fuel economy (l/100 km),Total fuel economy (l/100 km), Time since engine start (sec), Number of warm-ups since DTCs cleared, Distance traveled since DTCs cleared (km), Barometric pressure (bar),O2 sensor lambda wide range (current probe)  (Bank 1  Sensor 1),O2 sensor current wide range (Bank 1  Sensor 1) (mA),O2 sensor lambda wide range (current probe)  (Bank 1  Sensor 2),O2 sensor current wide range (Bank 1  Sensor 2) (mA),O2 sensor lambda wide range (current probe)  (Bank 1  Sensor 3),O2 sensor current wide range (Bank 1  Sensor 3) (mA),O2 sensor lambda wide range (current probe)  (Bank 1  Sensor 4),O2 sensor current wide range (Bank 1  Sensor 4) (mA),O2 sensor lambda wide range (current probe)  (Bank 2  Sensor 1),O2 sensor current wide range (Bank 2  Sensor 1) (mA),O2 sensor lambda wide range (current probe)  (Bank 2  Sensor 2),O2 sensor current wide range (Bank 2  Sensor 2) (mA),O2 sensor lambda wide range (current probe)  (Bank 2  Sensor 3),O2 sensor current wide range (Bank 2  Sensor 3) (mA),O2 sensor lambda wide range (current probe)  (Bank 2  Sensor 4),O2 sensor current wide range (Bank 2  Sensor 4) (mA), Control module voltage (V), Absolute throttle position C (%), Mass air flow sensor B (g/s), Relative throttle B position (%), Commanded boost pressure A (bar), Boost pressure sensor A (bar), Commanded boost pressure B (bar), Boost pressure sensor B (bar), Boost pressure A control status, Boost pressure B control status,Charge air cooler temperature bank 1  sensor 1 (°C),Charge air cooler temperature bank 1  sensor 2 (°C), Manifold surface temperature (°C), Intake manifold absolute pressure A (bar), Intake manifold absolute pressure B (bar),Total run time with EI-AECD #11 Timer 1 active (sec),Total run time with EI-AECD #11 Timer 2 active (sec),Total run time with EI-AECD #12 Timer 1 active (sec),Total run time with EI-AECD #12 Timer 2 active (sec), Diesel aftertreatment status,O2 sensor concentration bank 1 sensor 1 (%),O2 sensor concentration bank 1 sensor 2 (%),O2 sensor concentration bank 2 sensor 1 (%),O2 sensor concentration bank 2 sensor 2 (%), Absolute throttle position G (%),Target SCR Catalyst NH3 Storage A (g/L),Actual/Modelled SCR Catalyst NH3 Storage A (g/L),Target SCR Catalyst NH3 Storage B (g/L),Actual/Modelled SCR Catalyst NH3 Storage B (g/L), Hydrocarbon Doser Flow Rate (g/min), Hydrocarbon Doser Injector Duty Cycle (%),O2 sensor concentration bank 1 sensor 3 (%),O2 sensor concentration bank 1 sensor 4 (%),O2 sensor concentration bank 2 sensor 3 (%),O2 sensor concentration bank 2 sensor 4 (%),O2 sensor lambda bank 1 sensor 3,O2 sensor lambda bank 1 sensor 4,O2 sensor lambda bank 2 sensor 3,O2 sensor lambda bank 2 sensor 4, Engine Fuel Rate (g/s), Vehicle Fuel Rate (g/s), Engine Exhaust Flow Rate (g/s),Fuel System A Use Percentage Bank 1 (%),Fuel System A Use Percentage Bank 2 (%), Cylinder Fuel Rate, Transmission Actual Gear Status, Transmission Actual Gear Ratio, Vehicle Odometer Reading (km), Motorcycle ABS Disable Switch State, Maximum Current Vehicle Speed Limit (MPH), Alternative Fuel Tank Pressure (bar), Alternative Fuel Tank Temperature (°C),Crankcase Pressure Sensor (inH2O),Fuel System Status Bank 1,Fuel System Status Bank 2,Short Term Fuel Trim Bank 1 (%),Long Term Fuel Trim Bank 1 (%),Short Term Fuel Trim Bank 2 (%),Long Term Fuel Trim Bank 2 (%),O2 Sensor Concentration Bank 1 Sensor 5 (%),O2 Sensor Concentration Bank 1 Sensor 6 (%),O2 Sensor Concentration Bank 2 Sensor 5 (%),O2 Sensor Concentration Bank 2 Sensor 6 (%),O2 Sensor Lambda Bank 1 Sensor 5,O2 Sensor Lambda Bank 1 Sensor 6,O2 Sensor Lambda Bank 2 Sensor 5,O2 Sensor Lambda Bank 2 Sensor 6, Input voltage read by the scan tool (V), Acceleration (Avg) (m/s²), A/F Commanded, A/F Actual,Trip Distance (km), Trip Fuel (gal),Trip Fuel Economy (l/100 km),Trip Duration (min), Idling Count, Seconds Idling (sec)
0.000,0,0,0,25.70985,20.02083,-30.08568,0,0,0,0,0,0,0,0,-0.1151716,1.96826,3.444193,-4.766974,-54.03152,-60.05141,-67.24577,114.9731,0,0,0,0,0,0,0,0,0,0,0,0,0,340.2,0,0,0,0,0,0,0,0,0,0,0,0,0,0,0,0,0,0,0,0,0,0,0,0,0,0,0,0,0,0,0,0,0,0,0,0,0,0,0,0,0,0,0,0,0,0,0,0,0,0,0,0,0,0,0,0,0,0,0,0,0,0,0,0,0,0,0,0,0,0,0,0,0,0,0,0,0,0,0,0,0,0,0,0,0,0,0,0,0,0,0,0,0,0,0,0,0,0,0
0.999,0,0,0,-43.4648,-10.23442,-20.82695,0,0,0,0,0,0,0,0,-0.9241489,1.16957,0.9135481,-14.69564,-41.71034,-63.45646,-67.76497,129.9287,0,0,0,0,0,0,0,0,0,0,0,0,0,340.2,0,0,0,0,0,0,0,0,0,0,0,0,0,0,0,0,0,0,0,0,0,0,0,0,0,0,0,0,0,0,0,0,0,0,0,0,0,0,0,0,0,0,0,0,0,0,0,0,0,0,0,0,0,0,0,0,0,0,0,0,0,0,0,0,0,0,0,0,0,0,0,0,0,0,0,0,0,0,0,0,0,0,0,0,0,0,0,0,0,0,0,0,0,0,0,0,0,0,0
1.999,0,0,0,-3.678864,-11.44235,3.4086,0,0,0,0,0,0,0,0,0.8968754,-0.938927,1.242498,-5.100876,-60.2886,-64.50349,-69.48756,116.7273,0,0,0,0,0,0,0,0,0,0,0,0,0,340.2,0,0,0,0,0,0,0,0,0,0,0,0,0,0,0,0,0,0,0,0,0,0,0,0,0,0,0,0,0,0,0,0,0,0,0,0,0,0,0,0,0,0,0,0,0,0,0,0,0,0,0,0,0,0,0,0,0,0,0,0,0,0,0,0,0,0,0,0,0,0,0,0,0,0,0,0,0,0,0,0,0,0,0,0,0,0,0,0,0,0,0,0,0,0,0,0,0,0,0
2.999,0,0,0,58.08184,-17.16982,4.485733,87,87,0,0,0,0,0,0,1.174771,1.375313,-1.49311,4.54636,-38.27118,-76.39165,-55.15754,133.1963,35.68628,0.93,751,13,32,0,14.90196,14.90196,0,8.9936,-0.07,0,0,340.2,0,5.600845,14,77,4337,0.97,2.888472,-0.00390625,2.882616,-0.00390625,0,0,0,0,0,0,0,0,0,0,0,0,12.94,0,0,0,0,0,0,0,0,0,61,55,0,0,0,0,0,0,0,0,0,0,0,0,0,0,0,0,0,0,0,0,0,0,0,0,0,0,0,0,0,0,0,0,0,0,0,0,0,0,0,0,0,0,0,0,0,0,0,0,0,0,0,0,0,0,0,12.9,0,0,41.88284,0,0,0,0,1,7E-06
3.999,0,0,0,-3.549393,11.98778,1.56929,87,87,0,0,0,0,0,0,0.5766864,1.398763,-1.667334,3.492335,-27.90797,-76.22221,-49.50248,137.0091,35.68628,0.93,751,13,32,0,14.90196,14.90196,0,8.9936,-0.07,0,0,340.2,0,5.600845,14,77,4337,0.97,2.888472,-0.00390625,2.882616,-0.00390625,0,0,0,0,0,0,0,0,0,0,0,0,12.94,0,0,0,0,0,0,0,0,0,61,55,0,0,0,0,0,0,0,0,0,0,0,0,0,0,0,0,0,0,0,0,0,0,0,0,0,0,0,0,0,0,0,0,0,0,0,0,0,0,0,0,0,0,0,0,0,0,0,0,0,0,0,0,0,0,0,12.9,0,0,41.88284,0,0,0,0,1,7E-06
4.999,0,0.7687569,25.12025,-32.71582,8.100235,5.331909,87,87,0,2.485053,0,0.001803312,0,0.5742766,-0.4726949,-0.1807801,0.3992173,4.237922,-35.98642,-82.07482,-57.07788,138.5797,53.33333,0.97,933.5,13,32,0,23.92157,23.92157,0.7429012,11.94519,0,2.317582,0,340.1,0,5.601247,14,77,4337,0.97,2.304824,-0.00390625,2.255048,-0.00390625,0,0,0,0,0,0,0,0,0,0,0,0,12.94,0,0,0,0,0,0,0,0,0,61,55,0,0,0,0,0,0,0,0,0,0,0,0,0,0,0,0,0,0,0,0,0,0,0,0,0,0,0,0,0,0,0,0,0,0,0,0,0,0,0,0,0,0,0,0,0,0,0,0,0,0,0,0,0,0,0,12.9,0,0,33.41995,0,0.0001771426,0,0.08480525,1,1.725982
5.999,1.864114,1.595363,25.12233,-56.43057,-7.090897,-16.82014,87,87,0.239009,4.249039,1.864114,0.003881378,1430.122,1.191768,0.5608698,-1.174644,2.982208,5.632243,-43.67464,-85.82224,-55.82571,124.5403,51.37255,1.06,1133,13,32,0,27.45098,27.45098,0.8299076,15.84319,0.09,4.809564,2671.73,340.1,53.17874,5.601662,14,77,4337,0.97,1.550864,-0.00390625,1.62992,-0.00390625,0,0,0,0,0,0,0,0,0,0,0,0,12.94,0,0,0,0,0,0,0,0,0,61,55,0,0,0,0,0,0,0,0,0,0,0,0,0,0,0,0,0,0,0,0,0,0,0,0,0,0,0,0,0,0,0,0,0,0,0,0,0,0,0,0,0,0,0,0,0,0,0,0,0,0,0,0,0,0,0,12.9,0.0478018,0,22.48753,0.001452758,0.0003812748,99.34767,0.114588,1,3.512382
6.999,1.864114,1.595363,25.12233,16.45377,13.36708,1.091736,87,87,0.239009,4.249039,1.864114,0.003881378,1430.122,1.191768,0.1391913,-0.9724304,1.086911,2.402564,-49.36644,-85.60947,-57.47087,118.4726,51.37255,1.06,1133,13,32,0,27.45098,27.45098,0.8299076,15.84319,0.09,4.809564,2671.73,340,53.17874,5.601662,14,77,4337,0.97,1.550864,-0.00390625,1.62992,-0.00390625,0,0,0,0,0,0,0,0,0,0,0,0,12.94,0,0,0,0,0,0,0,0,0,61,55,0,0,0,0,0,0,0,0,0,0,0,0,0,0,0,0,0,0,0,0,0,0,0,0,0,0,0,0,0,0,0,0,0,0,0,0,0,0,0,0,0,0,0,0,0,0,0,0,0,0,0,0,0,0,0,12.9,0.0478018,0,22.48753,0.001452758,0.0003812748,99.34767,0.114588,1,3.512382
8.001,4.97097,1.339735,25.12413,-12.37004,8.872726,6.533234,87,87,0.6264719,3.963507,4.97097,0.005686668,450.3638,1.000808,-0.1559263,0.329298,-0.2539586,2.664186,-46.02641,-87.02625,-53.2224,119.5342,32.15686,1.03,1020,13,32,0,14.90196,14.90196,0.59613,13.85939,0.06,4.038917,1046.186,340.1,16.74667,5.601931,14,77,4337,0.97,2.399496,-0.00390625,2.375584,-0.00390625,0,0,0,0,0,0,0,0,0,0,0,0,12.94,0,0,0,0,0,0,0,0,0,61,55,0,0,0,0,0,0,0,0,0,0,0,0,0,0,0,0,0,0,0,0,0,0,0,0,0,0,0,0,0,0,0,0,0,0,0,0,0,0,0,0,0,0,0,0,0,0,0,0,0,0,0,0,0,0,0,12.9,0.1252944,0,34.79269,0.005435617,0.0005586118,38.90219,0.1437309,1,5.260969
8.999,4.97097,1.339735,25.12413,-10.18098,16.871,15.78133,87,87,0.6264719,3.963507,4.97097,0.005686668,450.3638,1.000808,-0.2776308,1.058446,-1.325717,3.704481,-41.08012,-89.83427,-48.33943,119.2938,32.15686,1.03,1020,13,32,0,14.90196,14.90196,0.59613,13.85939,0.06,4.038917,1046.186,340.1,16.74667,5.601931,14,77,4337,0.97,2.399496,-0.00390625,2.375584,-0.00390625,0,0,0,0,0,0,0,0,0,0,0,0,12.94,0,0,0,0,0,0,0,0,0,61,55,0,0,0,0,0,0,0,0,0,0,0,0,0,0,0,0,0,0,0,0,0,0,0,0,0,0,0,0,0,0,0,0,0,0,0,0,0,0,0,0,0,0,0,0,0,0,0,0,0,0,0,0,0,0,0,12.9,0.1252944,0,34.79269,0.005435617,0.0005586118,38.90219,0.1437309,1,5.260969
9.999,3.728227,0.7162561,25.12506,-2.514999,19.45763,19.96689,87,87,0.2287619,2.063361,4.97097,0.006616813,321.0345,0.5350575,-0.2253735,-0.06857641,0.4137817,4.872177,-43.53305,-95.53078,-44.56225,113.8273,37.64706,1.03,1047.5,17,32,0,31.37255,31.37255,0.5655587,14.23305,0.06,2.159307,792.1652,340,11.93759,5.60204,14,77,4337,0.97,1.396168,-0.00390625,1.343464,-0.00390625,0,0,0,0,0,0,0,0,0,0,0,0,12.94,0,0,0,0,0,0,0,0,0,61,55,0,0,0,0,0,0,0,0,0,0,0,0,0,0,0,0,0,0,0,0,0,0,0,0,0,0,0,0,0,0,0,0,0,0,0,0,0,0,0,0,0,0,0,0,0,0,0,0,0,0,0,0,0,0,0,13.3,0.09355418,0,20.24444,0.008352819,0.0006499816,29.45648,0.1790912,1,7.382602
10.999,3.728227,0.7162561,25.12506,8.376938,18.69203,8.839478,87,87,0.2287619,2.063361,4.97097,0.006616813,321.0345,0.5350575,0.4882182,-0.4762442,0.1135956,4.127232,-45.38466,-97.2,-40.17725,105.7477,37.64706,1.03,1047.5,17,32,0,31.37255,31.37255,0.5655587,14.23305,0.06,2.159307,792.1652,340,11.93759,5.60204,14,77,4337,0.97,1.396168,-0.00390625,1.343464,-0.00390625,0,0,0,0,0,0,0,0,0,0,0,0,12.94,0,0,0,0,0,0,0,0,0,61,55,0,0,0,0,0,0,0,0,0,0,0,0,0,0,0,0,0,0,0,0,0,0,0,0,0,0,0,0,0,0,0,0,0,0,0,0,0,0,0,0,0,0,0,0,0,0,0,0,0,0,0,0,0,0,0,13.3,0.09355418,0,20.24444,0.008352819,0.0006499816,29.45648,0.1790912,1,7.382602
12.000,6.835083,1.456708,25.12738,-8.102509,3.834289,6.09906,87,87,0.1680454,3.712631,6.835083,0.008928994,356.1348,1.08819,0.2274572,0.202675,-0.6304837,0.8502527,-44.15565,-94.63091,-40.71371,101.2662,70.58823,1.14,1184,17,32,0,28.62745,28.62745,0.9700618,17.56041,0.17,4.391557,601.405,339.9,13.24279,5.602337,14,77,4337,0.97,1.485472,-0.00390625,1.479128,-0.00390625,0,0,0,0,0,0,0,0,0,0,0,0,12.94,0,0,0,0,0,0,0,0,0,61,55,0,0,0,0,0,0,0,0,0,0,0,0,0,0,0,0,0,0,0,0,0,0,0,0,0,0,0,0,0,0,0,0,0,0,0,0,0,0,0,0,0,0,0,0,0,0,0,0,0,0,0,0,0,0,0,13.3,0.1589034,0,21.53934,0.01484689,0.0008771113,22.3631,0.2082142,1,9.129987
13.000,6.835083,1.456708,25.12738,-13.01303,-3.334274,-6.017639,87,87,0.1680454,3.712631,6.835083,0.008928994,356.1348,1.08819,0.3149794,-0.2521177,0.05971812,2.856043,-45.95039,-94.70523,-35.69123,99.01936,70.58823,1.14,1184,17,32,0,28.62745,28.62745,0.9700618,17.56041,0.17,4.391557,601.405,340,13.24279,5.602337,14,77,4337,0.97,1.485472,-0.00390625,1.479128,-0.00390625,0,0,0,0,0,0,0,0,0,0,0,0,12.94,0,0,0,0,0,0,0,0,0,61,55,0,0,0,0,0,0,0,0,0,0,0,0,0,0,0,0,0,0,0,0,0,0,0,0,0,0,0,0,0,0,0,0,0,0,0,0,0,0,0,0,0,0,0,0,0,0,0,0,0,0,0,0,0,0,0,13.3,0.1589034,0,21.53934,0.01484689,0.0008771113,22.3631,0.2082142,1,9.129987
14.000,9.320568,2.460674,25.13057,3.506454,4.369171,-2.381439,87,87,0.6464222,6.362741,9.320568,0.01212567,441.1613,1.838172,0.2633716,-0.5792081,0.05828493,3.155899,-44.07004,-95.58199,-37.8971,101.2014,65.88235,1.06,1167,17,32,0,25.09804,25.09804,0.7731826,16.09366,0.09,7.418227,548.9706,340.1,16.40448,5.602807,14,77,4337,0.97,1.598688,-0.00390625,1.623576,-0.00390625,0,0,0,0,0,0,0,0,0,0,0,0,12.94,0,0,0,0,0,0,0,0,0,61,55,0,0,0,0,0,0,0,0,0,0,0,0,0,0,0,0,0,0,0,0,0,0,0,0,0,0,0,0,0,0,0,0,0,0,0,0,0,0,0,0,0,0,0,0,0,0,0,0,0,0,0,0,0,0,0,12.9,0.2228386,0,23.18098,0.02208802,0.001191127,20.41334,0.2382868,1,9.129987
15.000,9.320568,2.460674,25.13057,0.7443695,2.628357,-3.84639,87,87,0.6464222,6.362741,9.320568,0.01212567,441.1613,1.838172,0.1780992,-0.4625601,0.3510133,2.77645,-44.60302,-95.93691,-38.73027,100.7803,65.88235,1.06,1167,17,32,0,25.09804,25.09804,0.7731826,16.09366,0.09,7.418227,548.9706,340.2,16.40448,5.602807,14,77,4337,0.97,1.598688,-0.00390625,1.623576,-0.00390625,0,0,0,0,0,0,0,0,0,0,0,0,12.94,0,0,0,0,0,0,0,0,0,61,55,0,0,0,0,0,0,0,0,0,0,0,0,0,0,0,0,0,0,0,0,0,0,0,0,0,0,0,0,0,0,0,0,0,0,0,0,0,0,0,0,0,0,0,0,0,0,0,0,0,0,0,0,0,0,0,12.9,0.2228386,0,23.18098,0.02208802,0.001191127,20.41334,0.2382868,1,9.129987
16.000,11.18468,2.136579,25.1335,-8.853302,2.51268,11.53401,87,87,0.5477858,5.112871,11.18468,0.01505654,319.2133,1.596066,-1.039603,0.5730476,-0.9269618,3.788661,-42.54623,-95.31648,-36.21997,101.5546,30.98039,1.03,1261,17,32,0,14.90196,14.90196,0.7297782,16.89781,0.06,6.441172,482.256,340.3,11.86987,5.603153,14,77,4337,0.97,15.9903,-0.00390625,15.9903,-0.00390625,0,0,0,0,0,0,0,0,0,0,0,0,12.94,0,0,0,0,0,0,0,0,0,61,55,0,0,0,0,0,0,0,0,0,0,0,0,0,0,0,0,0,0,0,0,0,0,0,0,0,0,0,0,0,0,0,0,0,0,0,0,0,0,0,0,0,0,0,0,0,0,0,0,0,0,0,0,0,0,0,12.9,0.2684606,0,231.8593,0.03122104,0.001479031,17.93258,0.267719,1,9.129987
17.000,11.18468,2.136579,25.1335,-8.527908,12.71008,15.42685,87,87,0.5477858,5.112871,11.18468,0.01505654,319.2133,1.596066,-0.7293249,0.308891,0.3361715,7.22664,-43.70877,-92.77639,-30.3869,101.0802,30.98039,1.03,1261,17,32,0,14.90196,14.90196,0.7297782,16.89781,0.06,6.441172,482.256,340.3,11.86987,5.603153,14,77,4337,0.97,15.9903,-0.00390625,15.9903,-0.00390625,0,0,0,0,0,0,0,0,0,0,0,0,12.94,0,0,0,0,0,0,0,0,0,61,55,0,0,0,0,0,0,0,0,0,0,0,0,0,0,0,0,0,0,0,0,0,0,0,0,0,0,0,0,0,0,0,0,0,0,0,0,0,0,0,0,0,0,0,0,0,0,0,0,0,0,0,0,0,0,0,12.9,0.2684606,0,231.8593,0.03122104,0.001479031,17.93258,0.267719,1,9.129987
18.000,9.941939,0.6365522,25.13433,18.38611,38.71568,16.25475,87,87,0.06853008,1.91798,11.18468,0.0158843,106.9913,0.4755171,-0.4602734,-0.2415771,-0.7048351,6.833279,-44.96805,-85.80812,-26.5898,95.69719,0,0.99,1001.5,21,32,0,23.13725,24.31373,0.4279017,12.89924,0.02,1.919023,407.7351,340.4,3.978448,5.603078,14,77,4337,0.97,1.877336,-0.00390625,1.7934,-0.00390625,0,0,0,0,0,0,0,0,0,0,0,0,12.94,0,0,0,0,0,0,0,0,0,61,55,0,0,0,0,0,0,0,0,0,0,0,0,0,0,0,0,0,0,0,0,0,0,0,0,0,0,0,0,0,0,0,0,0,0,0,0,0,0,0,0,0,0,0,0,0,0,0,0,0,0,0,0,0,0,0,12.8,0.2365446,0,27.22137,0.0389574,0.001560344,15.16154,0.3027551,1,9.129987
19.000,9.320568,0,25.13433,-3.801437,19.33643,4.74556,87,87,-0.2255699,0,11.18468,0.0158843,0,0,0.4342152,-0.7679313,-0.7363069,3.534266,-44.44133,-75.43752,-27.92622,92.06377,34.90196,1.04,1103.5,21,32,0,23.92157,23.92157,0.6201199,14.72778,0.07,0,332.816,340.4,0,5.602784,14,77,4337,0.97,2.399496,-0.00390625,2.961672,-0.00390625,0,0,0,0,0,0,0,0,0,0,0,0,12.94,0,0,0,0,0,0,0,0,0,61,55,0,0,0,0,0,0,0,0,0,0,0,0,0,0,0,0,0,0,0,0,0,0,0,0,0,0,0,0,0,0,0,0,0,0,0,0,0,0,0,0,0,0,0,0,0,0,0,0,0,0,0,0,0,0,0,12.8,0.2233466,0,34.79269,0.04772698,0.001560344,12.37568,0.3318295,1,9.129987
20.000,9.320568,0,25.13433,10.7354,12.00746,-1.259933,87,87,-0.2255699,0,11.18468,0.0158843,0,0,0.5261388,0.04344014,-0.3281425,0.835353,-42.17002,-68.21433,-30.47393,92.4276,34.90196,1.04,1103.5,21,32,0,23.92157,23.92157,0.6201199,14.72778,0.07,0,332.816,340.4,0,5.602784,14,77,4337,0.97,2.399496,-0.00390625,2.961672,-0.00390625,0,0,0,0,0,0,0,0,0,0,0,0,12.94,0,0,0,0,0,0,0,0,0,61,55,0,0,0,0,0,0,0,0,0,0,0,0,0,0,0,0,0,0,0,0,0,0,0,0,0,0,0,0,0,0,0,0,0,0,0,0,0,0,0,0,0,0,0,0,0,0,0,0,0,0,0,0,0,0,0,12.8,0.2233466,0,34.79269,0.04772698,0.001560344,12.37568,0.3318295,1,9.129987
21.000,9.320568,0,25.13433,-2.893829,0.6834412,0.007476807,87,87,-0.2255699,0,11.18468,0.0158843,0,0,0.05719217,0.3354895,0.2531697,0.3119991,-44.47173,-67.58498,-30.5318,93.09612,34.90196,1.04,1103.5,21,32,0,23.92157,23.92157,0.6201199,14.72778,0.07,0,332.816,340.4,0,5.602784,14,77,4337,0.97,2.399496,-0.00390625,2.961672,-0.00390625,0,0,0,0,0,0,0,0,0,0,0,0,12.94,0,0,0,0,0,0,0,0,0,61,55,0,0,0,0,0,0,0,0,0,0,0,0,0,0,0,0,0,0,0,0,0,0,0,0,0,0,0,0,0,0,0,0,0,0,0,0,0,0,0,0,0,0,0,0,0,0,0,0,0,0,0,0,0,0,0,12.8,0.2233466,0,34.79269,0.04772698,0.001560344,12.37568,0.3318295,1,9.129987
22.000,9.941939,0.7518612,25.13531,1.192932,-4.554077,-3.056351,87,87,0.01393391,2.301027,11.18468,0.01686708,126.3724,0.5616552,0.1134228,0.4482927,-0.4460499,0.2233422,-43.91736,-68.74234,-30.06383,92.47534,3.529412,1.01,986,21,32,0,14.90196,14.90196,0.5197251,12.77997,0.04,2.266646,304.1834,340.5,4.699129,5.602743,33,77,4337,0.97,2.209176,-0.00390625,1.936872,-0.00390625,0,0,0,0,0,0,0,0,0,0,0,0,12.94,0,0,0,0,0,0,0,0,0,68,52,0,0,0,0,0,0,0,0,0,0,0,0,0,0,0,0,0,0,0,0,0,0,0,0,0,0,0,0,0,0,0,0,0,0,0,0,0,0,0,0,0,0,0,0,0,0,0,0,0,0,0,0,0,0,0,13,0.2393314,0,32.03305,0.05545038,0.001656884,11.31099,0.3693229,1,9.129987
23.000,8.077826,0.1121869,25.1355,0.3773346,-0.05561829,-1.510376,87,87,-0.1054997,0.2897173,11.18468,0.01705544,23.20777,0.08380584,-0.1544779,-0.4157161,0.312052,1.29257,-44.77212,-70.76924,-28.58782,92.01543,61.17647,1.06,1168.5,21,32,0,26.27451,22.7451,0.8582646,15.89521,0.09,0.3382114,268.3152,340.5,0.8629755,5.602513,33,77,4337,0.97,2.632272,-0.00390625,3.47212,-0.00390625,0,0,0,0,0,0,0,0,0,0,0,0,12.94,0,0,0,0,0,0,0,0,0,68,52,0,0,0,0,0,0,0,0,0,0,0,0,0,0,0,0,0,0,0,0,0,0,0,0,0,0,0,0,0,0,0,0,0,0,0,0,0,0,0,0,0,0,0,0,0,0,0,0,0,0,0,0,0,0,0,13,0.2022467,0,38.16795,0.06356493,0.001675387,9.977237,0.3980789,1,9.129987
24.001,8.077826,0.1121869,25.1355,-1.142578,1.453461,1.26239,87,87,-0.1054997,0.2897173,11.18468,0.01705544,23.20777,0.08380584,0.02025135,0.2028728,-0.003124034,1.271356,-44.72418,-70.99,-28.97907,92.4935,61.17647,1.06,1168.5,21,32,0,26.27451,22.7451,0.8582646,15.89521,0.09,0.3382114,268.3152,340.6,0.8629755,5.602513,33,77,4337,0.97,2.632272,-0.00390625,3.47212,-0.00390625,0,0,0,0,0,0,0,0,0,0,0,0,12.94,0,0,0,0,0,0,0,0,0,68,52,0,0,0,0,0,0,0,0,0,0,0,0,0,0,0,0,0,0,0,0,0,0,0,0,0,0,0,0,0,0,0,0,0,0,0,0,0,0,0,0,0,0,0,0,0,0,0,0,0,0,0,0,0,0,0,13,0.2022467,0,38.16795,0.06356493,0.001675387,9.977237,0.3980789,1,9.129987
25.001,8.077826,0.1121869,25.1355,3.599136,2.161743,-1.804337,87,87,-0.1054997,0.2897173,11.18468,0.01705544,23.20777,0.08380584,-0.08092363,0.3380721,0.2882468,1.292264,-44.96566,-71.75583,-28.43863,92.72874,61.17647,1.06,1168.5,21,32,0,26.27451,22.7451,0.8582646,15.89521,0.09,0.3382114,268.3152,340.7,0.8629755,5.602513,33,77,4337,0.97,2.632272,-0.00390625,3.47212,-0.00390625,0,0,0,0,0,0,0,0,0,0,0,0,12.94,0,0,0,0,0,0,0,0,0,68,52,0,0,0,0,0,0,0,0,0,0,0,0,0,0,0,0,0,0,0,0,0,0,0,0,0,0,0,0,0,0,0,0,0,0,0,0,0,0,0,0,0,0,0,0,0,0,0,0,0,0,0,0,0,0,0,13,0.2022467,0,38.16795,0.06356493,0.001675387,9.977237,0.3980789,1,9.129987
26.001,8.699197,1.133439,25.13697,2.526276,-1.691727,-3.898178,87,87,-0.1057535,3.621239,11.18468,0.01852358,217.7232,0.8467013,-0.1085952,0.1066546,-0.2355519,1.021437,-43.91429,-72.19676,-28.86934,93.07602,18.82353,1.01,944.5,26,32,0,14.90196,14.90196,0.4221271,12.24208,0.04,3.416994,263.3269,340.7,8.095986,5.602612,33,77,4337,0.97,3.124664,-0.00390625,2.923608,-0.00390625,0,0,0,0,0,0,0,0,0,0,0,0,12.94,0,0,0,0,0,0,0,0,0,68,52,0,0,0,0,0,0,0,0,0,0,0,0,0,0,0,0,0,0,0,0,0,0,0,0,0,0,0,0,0,0,0,0,0,0,0,0,0,0,0,0,0,0,0,0,0,0,0,0,0,0,0,0,0,0,0,13,0.1703789,0,45.30763,0.07034443,0.001819605,9.791749,0.4330663,1,9.129987
27.001,8.077826,0.6181643,25.13794,4.057693,-5.643402,-8.304596,87,87,0.01341159,1.619948,11.18468,0.01949572,127.8778,0.461781,0.4376006,-0.2486458,-0.05915564,-0.590924,-43.29296,-72.46901,-30.32434,91.81477,50.19608,1.03,1151.5,26,32,0,23.52941,19.21569,0.9414111,14.96624,0.06,1.863588,250.2213,340.7,4.755106,5.602575,33,77,4337,0.97,2.992416,-0.00390625,3.924496,-0.00390625,0,0,0,0,0,0,0,0,0,0,0,0,12.94,0,0,0,0,0,0,0,0,0,68,52,0,0,0,0,0,0,0,0,0,0,0,0,0,0,0,0,0,0,0,0,0,0,0,0,0,0,0,0,0,0,0,0,0,0,0,0,0,0,0,0,0,0,0,0,0,0,0,0,0,0,0,0,0,0,0,13,0.07963464,0,43.39003,0.07791392,0.0019151,9.304419,0.4620923,1,9.129987
28.001,8.077826,0.6181643,25.13794,43.62088,-6.384964,-56.89178,87,87,0.01341159,1.619948,11.18468,0.01949572,127.8778,0.461781,1.045719,0.1313975,-0.605688,-1.108256,-37.08457,-76.27512,-34.63878,94.28441,50.19608,1.03,1151.5,26,32,0,23.52941,19.21569,0.9414111,14.96624,0.06,1.863588,250.2213,340.8,4.755106,5.602575,33,77,4337,0.97,2.992416,-0.00390625,3.924496,-0.00390625,0,0,0,0,0,0,0,0,0,0,0,0,12.94,0,0,0,0,0,0,0,0,0,68,52,0,0,0,0,0,0,0,0,0,0,0,0,0,0,0,0,0,0,0,0,0,0,0,0,0,0,0,0,0,0,0,0,0,0,0,0,0,0,0,0,0,0,0,0,0,0,0,0,0,0,0,0,0,0,0,13,0.07963464,0,43.39003,0.07791392,0.0019151,9.304419,0.4620923,1,9.129987
29.001,8.699197,0.9417548,25.13917,-11.073,-16.26883,-13.96786,87,87,0.01318449,3.06728,11.18468,0.02071837,180.9024,0.7035094,0.7605909,-0.3048986,0.8239219,-1.614615,-40.16772,-84.47353,-37.74784,95.8837,23.13725,1.01,926.5,26,32,0,14.90196,14.90196,0.4411462,11.80805,0.04,2.839121,244.572,340.9,6.726815,5.602619,33,77,4337,0.97,2.756224,-0.00390625,2.572736,-0.00390625,0,0,0,0,0,0,0,0,0,0,0,0,12.94,0,0,0,0,0,0,0,0,0,68,52,0,0,0,0,0,0,0,0,0,0,0,0,0,0,0,0,0,0,0,0,0,0,0,0,0,0,0,0,0,0,0,0,0,0,0,0,0,0,0,0,0,0,0,0,0,0,0,0,0,0,0,0,0,0,0,13,0.1272634,0,39.96525,0.08471279,0.002035204,9.094351,0.4922258,1,9.129987
30.001,8.699197,0.9417548,25.13917,-12.118,-15.06747,1.947708,87,87,0.01318449,3.06728,11.18468,0.02071837,180.9024,0.7035094,0.02072472,0.4473333,-0.3325678,0.4319445,-38.52232,-91.91051,-41.32103,102.5462,23.13725,1.01,926.5,26,32,0,14.90196,14.90196,0.4411462,11.80805,0.04,2.839121,244.572,340.9,6.726815,5.602619,33,77,4337,0.97,2.756224,-0.00390625,2.572736,-0.00390625,0,0,0,0,0,0,0,0,0,0,0,0,12.94,0,0,0,0,0,0,0,0,0,68,52,0,0,0,0,0,0,0,0,0,0,0,0,0,0,0,0,0,0,0,0,0,0,0,0,0,0,0,0,0,0,0,0,0,0,0,0,0,0,0,0,0,0,0,0,0,0,0,0,0,0,0,0,0,0,0,13,0.1272634,0,39.96525,0.08471279,0.002035204,9.094351,0.4922258,1,9.129987
31.001,8.699197,0.9417548,25.13917,-12.37302,-2.522446,-4.276535,87,87,0.01318449,3.06728,11.18468,0.02071837,180.9024,0.7035094,-0.2467993,0.8696746,-1.388427,0.02096374,-38.82985,-93.12486,-37.29663,101.4182,23.13725,1.01,926.5,26,32,0,14.90196,14.90196,0.4411462,11.80805,0.04,2.839121,244.572,340.9,6.726815,5.602619,33,77,4337,0.97,2.756224,-0.00390625,2.572736,-0.00390625,0,0,0,0,0,0,0,0,0,0,0,0,12.94,0,0,0,0,0,0,0,0,0,68,52,0,0,0,0,0,0,0,0,0,0,0,0,0,0,0,0,0,0,0,0,0,0,0,0,0,0,0,0,0,0,0,0,0,0,0,0,0,0,0,0,0,0,0,0,0,0,0,0,0,0,0,0,0,0,0,13,0.1272634,0,39.96525,0.08471279,0.002035204,9.094351,0.4922258,1,9.129987
32.001,7.456454,0.4605012,25.13979,-12.4232,-7.909439,-14.26244,87,87,-0.07487282,1.546585,11.18468,0.02133922,103.201,0.3440035,-0.3630348,-0.6233863,-0.0026585,-1.911757,-41.65064,-95.34202,-42.51472,103.1158,34.5098,1,898.5,26,32,0,28.23529,30.19608,0.5816368,11.33782,0.03,1.388279,235.2388,340.9,3.837507,5.602556,33,77,4337,0.97,1.606496,-0.00390625,1.556232,-0.00390625,0,0,0,0,0,0,0,0,0,0,0,0,12.94,0,0,0,0,0,0,0,0,0,68,52,0,0,0,0,0,0,0,0,0,0,0,0,0,0,0,0,0,0,0,0,0,0,0,0,0,0,0,0,0,0,0,0,0,0,0,0,0,0,0,0,0,0,0,0,0,0,0,0,0,0,0,0,0,0,0,13,0.031051,0,23.29419,0.09071299,0.00209619,8.747301,0.5351207,1,9.129987
33.003,7.456454,0.4605012,25.13979,-1.893906,-19.74844,-3.284607,87,87,-0.07487282,1.546585,11.18468,0.02133922,103.201,0.3440035,0.4926676,0.1382656,0.088799,-3.111577,-40.53207,-94.31473,-49.53269,106.8138,34.5098,1,898.5,26,32,0,28.23529,30.19608,0.5816368,11.33782,0.03,1.388279,235.2388,340.8,3.837507,5.602556,33,77,4337,0.97,1.606496,-0.00390625,1.556232,-0.00390625,0,0,0,0,0,0,0,0,0,0,0,0,12.94,0,0,0,0,0,0,0,0,0,68,52,0,0,0,0,0,0,0,0,0,0,0,0,0,0,0,0,0,0,0,0,0,0,0,0,0,0,0,0,0,0,0,0,0,0,0,0,0,0,0,0,0,0,0,0,0,0,0,0,0,0,0,0,0,0,0,13,0.031051,0,23.29419,0.09071299,0.00209619,8.747301,0.5351207,1,9.129987
34.001,8.077826,0.9030047,25.14152,17.81259,-14.6409,-14.12091,87,87,-0.1004261,2.411418,11.18468,0.02307365,186.8019,0.6745624,0.7154835,0.2500775,-0.4005665,-2.710291,-40.33607,-92.1306,-58.1174,120.3841,28.62745,1.07,1130,33,32,0,18.03922,17.64706,0.7885112,15.25716,0.1,2.722301,230.6907,340.8,6.946185,5.60263,33,77,4337,0.97,2.921656,-0.00390625,2.826984,-0.00390625,0,0,0,0,0,0,0,0,0,0,0,0,12.94,0,0,0,0,0,0,0,0,0,68,52,0,0,0,0,0,0,0,0,0,0,0,0,0,0,0,0,0,0,0,0,0,0,0,0,0,0,0,0,0,0,0,0,0,0,0,0,0,0,0,0,0,0,0,0,0,0,0,0,0,0,0,0,0,0,0,13.3,-0.02210621,0,42.36401,0.1000198,0.002266567,8.578181,0.5700777,1,9.129987
35.002,8.077826,0.5722864,25.14242,-13.59377,-14.16571,19.37692,87,87,0.05388981,1.767583,11.18468,0.02397517,118.3872,0.4275092,0.7556985,-0.009939499,-0.7979307,-2.064643,-42.40046,-86.1069,-60.37683,121.4642,42.7451,1.01,977,33,32,0,29.41176,29.41176,0.490203,12.16696,0.04,1.725279,222.8412,340.8,4.402199,5.602577,33,77,4337,0.97,1.389824,-0.00390625,1.350784,-0.00390625,0,0,0,0,0,0,0,0,0,0,0,0,12.94,0,0,0,0,0,0,0,0,0,68,52,0,0,0,0,0,0,0,0,0,0,0,0,0,0,0,0,0,0,0,0,0,0,0,0,0,0,0,0,0,0,0,0,0,0,0,0,0,0,0,0,0,0,0,0,0,0,0,0,0,0,0,0,0,0,0,13.3,-0.06772821,0,20.15245,0.1075886,0.002355125,8.2863,0.5991272,1,9.129987
36.002,8.077826,0.5722864,25.14242,-0.6809082,-4.100388,-19.17194,87,87,0.05388981,1.767583,11.18468,0.02397517,118.3872,0.4275092,-1.150282,0.0650678,-0.6859217,-4.344437,-40.62628,-80.89951,-59.74496,126.2955,42.7451,1.01,977,33,32,0,29.41176,29.41176,0.490203,12.16696,0.04,1.725279,222.8412,340.8,4.402199,5.602577,33,77,4337,0.97,1.389824,-0.00390625,1.350784,-0.00390625,0,0,0,0,0,0,0,0,0,0,0,0,12.94,0,0,0,0,0,0,0,0,0,68,52,0,0,0,0,0,0,0,0,0,0,0,0,0,0,0,0,0,0,0,0,0,0,0,0,0,0,0,0,0,0,0,0,0,0,0,0,0,0,0,0,0,0,0,0,0,0,0,0,0,0,0,0,0,0,0,13.3,-0.06772821,0,20.15245,0.1075886,0.002355125,8.2863,0.5991272,1,9.129987
37.002,9.941939,1.879171,25.14486,-13.72299,-1.283524,14.86629,87,87,0.2390081,4.653736,11.18468,0.02640638,315.85,1.403778,-0.05810985,-0.1565676,0.9931145,-3.580663,-47.18492,-80.67242,-64.62791,122.7482,93.33334,1.16,1218.5,33,32,0,36.47059,36.86274,1.246835,17.42809,0.19,5.665162,228.9505,340.9,11.74481,5.602858,33,77,4337,0.97,1.353224,-0.00390625,1.374696,-0.00390625,0,0,0,0,0,0,0,0,0,0,0,0,12.94,0,0,0,0,0,0,0,0,0,68,52,0,0,0,0,0,0,0,0,0,0,0,0,0,0,0,0,0,0,0,0,0,0,0,0,0,0,0,0,0,0,0,0,0,0,0,0,0,0,0,0,0,0,0,0,0,0,0,0,0,0,0,0,0,0,0,13,0.0119894,0,19.62175,0.1153367,0.002593947,8.51347,0.6299497,1,9.129987
38.002,9.941939,1.879171,25.14486,-16.17822,-8.2444,-3.276764,87,87,0.2390081,4.653736,11.18468,0.02640638,315.85,1.403778,-0.09251622,-0.3257464,0.8644961,-2.348265,-50.34875,-80.34619,-71.83948,124.8751,93.33334,1.16,1218.5,33,32,0,36.47059,36.86274,1.246835,17.42809,0.19,5.665162,228.9505,340.8,11.74481,5.602858,33,77,4337,0.97,1.353224,-0.00390625,1.374696,-0.00390625,0,0,0,0,0,0,0,0,0,0,0,0,12.94,0,0,0,0,0,0,0,0,0,68,52,0,0,0,0,0,0,0,0,0,0,0,0,0,0,0,0,0,0,0,0,0,0,0,0,0,0,0,0,0,0,0,0,0,0,0,0,0,0,0,0,0,0,0,0,0,0,0,0,0,0,0,0,0,0,0,13,0.0119894,0,19.62175,0.1153367,0.002593947,8.51347,0.6299497,1,9.129987
39.002,13.67017,4.824335,25.15146,-5.521164,-8.626495,-4.7379,87,87,0.693409,8.953193,13.67017,0.03301449,589.7249,3.603874,-0.164036,-1.563631,0.768144,0.6617323,-55.58657,-80.88469,-73.60311,121.7631,63.52941,1.17,1626,33,32,0,30.58824,28.62745,1.175436,23.45701,0.2,14.54399,260.8935,340.8,21.92878,5.603954,33,77,4337,0.97,1.825608,-0.00390625,2.168184,-0.00390625,0,0,0,0,0,0,0,0,0,0,0,0,12.94,0,0,0,0,0,0,0,0,0,68,52,0,0,0,0,0,0,0,0,0,0,0,0,0,0,0,0,0,0,0,0,0,0,0,0,0,0,0,0,0,0,0,0,0,0,0,0,0,0,0,0,0,0,0,0,0,0,0,0,0,0,0,0,0,0,0,13,0.1160676,0,26.47132,0.1265439,0.003243074,9.701265,0.658639,1,9.129987
40.002,13.67017,4.824335,25.15146,8.302567,9.989014,13.2137,87,87,0.693409,8.953193,13.67017,0.03301449,589.7249,3.603874,0.3360578,-0.6748875,0.04159288,-5.888684,-65.79767,-79.88368,-73.26147,110.5636,63.52941,1.17,1626,33,32,0,30.58824,28.62745,1.175436,23.45701,0.2,14.54399,260.8935,340.8,21.92878,5.603954,33,77,4337,0.97,1.825608,-0.00390625,2.168184,-0.00390625,0,0,0,0,0,0,0,0,0,0,0,0,12.94,0,0,0,0,0,0,0,0,0,68,52,0,0,0,0,0,0,0,0,0,0,0,0,0,0,0,0,0,0,0,0,0,0,0,0,0,0,0,0,0,0,0,0,0,0,0,0,0,0,0,0,0,0,0,0,0,0,0,0,0,0,0,0,0,0,0,13,0.1160676,0,26.47132,0.1265439,0.003243074,9.701265,0.658639,1,9.129987
41.002,13.67017,4.824335,25.15146,2.710464,4.326462,-6.837738,87,87,0.693409,8.953193,13.67017,0.03301449,589.7249,3.603874,0.3559931,-0.3919823,0.5695908,-1.567432,-69.86455,-81.33722,-73.18919,110.5043,63.52941,1.17,1626,33,32,0,30.58824,28.62745,1.175436,23.45701,0.2,14.54399,260.8935,340.9,21.92878,5.603954,33,77,4337,0.97,1.825608,-0.00390625,2.168184,-0.00390625,0,0,0,0,0,0,0,0,0,0,0,0,12.94,0,0,0,0,0,0,0,0,0,68,52,0,0,0,0,0,0,0,0,0,0,0,0,0,0,0,0,0,0,0,0,0,0,0,0,0,0,0,0,0,0,0,0,0,0,0,0,0,0,0,0,0,0,0,0,0,0,0,0,0,0,0,0,0,0,0,13,0.1160676,0,26.47132,0.1265439,0.003243074,9.701265,0.658639,1,9.129987
42.002,14.91291,2.240639,25.15438,34.09691,20.69373,25.36462,87,88,0.6145881,5.095209,14.91291,0.03593522,251.0703,1.673802,-0.001138517,-0.8320428,1.453601,-1.004389,-65.26956,-79.36128,-73.8737,113.8772,0,1.04,1327,34,32,0,20.39216,19.21569,0.6010356,17.01651,0.07,6.754885,260.2032,340.8,9.335989,5.604217,53,77,4337,0.97,2.623976,-0.00390625,2.49612,-0.00390625,0,0,0,0,0,0,0,0,0,0,0,0,13.32,0,0,0,0,0,0,0,0,0,72,51,0,0,0,0,0,0,0,0,0,0,0,0,0,0,0,0,0,0,0,0,0,0,0,0,0,0,0,0,0,0,0,0,0,0,0,0,0,0,0,0,0,0,0,0,0,0,0,0,0,0,0,0,0,0,0,13.3,0.1321202,0,38.04765,0.1381045,0.003529982,9.675593,0.7124768,1,9.129987
43.002,14.91291,2.240639,25.15438,-7.014282,7.640839,0.2316589,87,88,0.6145881,5.095209,14.91291,0.03593522,251.0703,1.673802,-0.7062735,1.638393,-0.6130165,-1.998711,-38.4439,-83.78433,-63.18975,131.4373,0,1.04,1327,34,32,0,20.39216,19.21569,0.6010356,17.01651,0.07,6.754885,260.2032,340.9,9.335989,5.604217,53,77,4337,0.97,2.623976,-0.00390625,2.49612,-0.00390625,0,0,0,0,0,0,0,0,0,0,0,0,13.32,0,0,0,0,0,0,0,0,0,72,51,0,0,0,0,0,0,0,0,0,0,0,0,0,0,0,0,0,0,0,0,0,0,0,0,0,0,0,0,0,0,0,0,0,0,0,0,0,0,0,0,0,0,0,0,0,0,0,0,0,0,0,0,0,0,0,13.3,0.1321202,0,38.04765,0.1381045,0.003529982,9.675593,0.7124768,1,9.129987
44.002,12.42742,0,25.15438,13.63347,12.3996,15.55507,87,88,-0.01093742,0,14.91291,0.03593522,0,0,-0.2231887,1.339178,-0.7343208,-1.225411,-40.95816,-81.96283,-63.50649,129.2606,15.68627,1,989.5,34,32,0,14.90196,14.90196,0.4273776,12.1609,0.03,0,230.1466,340.9,0,5.603611,53,77,4337,0.97,2.567856,-0.00390625,2.476112,-0.00390625,0,0,0,0,0,0,0,0,0,0,0,0,13.32,0,0,0,0,0,0,0,0,0,72,51,0,0,0,0,0,0,0,0,0,0,0,0,0,0,0,0,0,0,0,0,0,0,0,0,0,0,0,0,0,0,0,0,0,0,0,0,0,0,0,0,0,0,0,0,0,0,0,0,0,0,0,0,0,0,0,13.3,0.13498,0,37.23391,0.1561406,0.003529982,8.557947,0.7416093,1,9.129987
45.003,12.42742,0,25.15438,-4.099869,8.329605,4.79335,87,88,-0.01093742,0,14.91291,0.03593522,0,0,-0.0181312,0.7886688,-0.8925143,-0.4043159,-40.22718,-85.70916,-60.18028,129.3526,15.68627,1,989.5,34,32,0,14.90196,14.90196,0.4273776,12.1609,0.03,0,230.1466,340.9,0,5.603611,53,77,4337,0.97,2.567856,-0.00390625,2.476112,-0.00390625,0,0,0,0,0,0,0,0,0,0,0,0,13.32,0,0,0,0,0,0,0,0,0,72,51,0,0,0,0,0,0,0,0,0,0,0,0,0,0,0,0,0,0,0,0,0,0,0,0,0,0,0,0,0,0,0,0,0,0,0,0,0,0,0,0,0,0,0,0,0,0,0,0,0,0,0,0,0,0,0,13.3,0.13498,0,37.23391,0.1561406,0.003529982,8.557947,0.7416093,1,9.129987
46.003,5.592341,0.3209275,25.1548,-5.641907,9.225403,24.41435,87,88,-1.048199,0.9912277,14.91291,0.03635277,95.89569,0.2397392,-0.553905,0.2799792,0.1496512,-0.6340255,-42.90784,-89.17705,-58.85254,125.8044,36.47059,1,977,34,32,0,14.90196,14.90196,0.5747928,12.00728,0.03,0.9675046,226.5036,340.8,3.565859,5.603558,53,77,4337,0.97,2.372656,-0.00390625,2.190144,-0.00390625,0,0,0,0,0,0,0,0,0,0,0,0,13.32,0,0,0,0,0,0,0,0,0,72,51,0,0,0,0,0,0,0,0,0,0,0,0,0,0,0,0,0,0,0,0,0,0,0,0,0,0,0,0,0,0,0,0,0,0,0,0,0,0,0,0,0,0,0,0,0,0,0,0,0,0,0,0,0,0,0,13.3,-0.05636886,0,34.40351,0.1604953,0.003570999,8.422483,0.7717682,1,9.129987
47.003,5.592341,0.3209275,25.1548,5.163132,17.60162,12.78607,87,88,-1.048199,0.9912277,14.91291,0.03635277,95.89569,0.2397392,0.535094,0.6664256,0.01600465,4.451535,-44.75104,-94.11493,-52.33017,117.0614,36.47059,1,977,34,32,0,14.90196,14.90196,0.5747928,12.00728,0.03,0.9675046,226.5036,340.9,3.565859,5.603558,53,77,4337,0.97,2.372656,-0.00390625,2.190144,-0.00390625,0,0,0,0,0,0,0,0,0,0,0,0,13.32,0,0,0,0,0,0,0,0,0,72,51,0,0,0,0,0,0,0,0,0,0,0,0,0,0,0,0,0,0,0,0,0,0,0,0,0,0,0,0,0,0,0,0,0,0,0,0,0,0,0,0,0,0,0,0,0,0,0,0,0,0,0,0,0,0,0,13.3,-0.05636886,0,34.40351,0.1604953,0.003570999,8.422483,0.7717682,1,9.129987
48.003,3.728227,1.953457,25.15743,-6.873596,20.10112,24.30005,87,88,-1.109554,4.636055,14.91291,0.03898489,875.5627,1.459271,-1.43355,-1.175434,0.2342209,0.223939,-52.32504,-97.58623,-46.77314,107.0978,85.88235,1.15,1271.5,34,32,0,37.2549,37.64706,1.524075,17.97067,0.18,5.889113,238.4653,340.9,32.55759,5.604044,53,77,4337,0.97,1.16632,-0.00390625,1.165344,-0.00390625,0,0,0,0,0,0,0,0,0,0,0,0,13.32,0,0,0,0,0,0,0,0,0,72,51,0,0,0,0,0,0,0,0,0,0,0,0,0,0,0,0,0,0,0,0,0,0,0,0,0,0,0,0,0,0,0,0,0,0,0,0,0,0,0,0,0,0,0,0,0,0,0,0,0,0,0,0,0,0,0,13.3,-0.08961306,0,16.91164,0.1634824,0.003829557,8.867277,0.8007895,1,9.129987
49.003,3.728227,1.953457,25.15743,2.291046,16.19939,29.74371,87,88,-1.109554,4.636055,14.91291,0.03898489,875.5627,1.459271,1.625641,1.02326,-0.7825333,3.968672,-45.79174,-95.0575,-37.14363,102.3887,85.88235,1.15,1271.5,34,32,0,37.2549,37.64706,1.524075,17.97067,0.18,5.889113,238.4653,340.9,32.55759,5.604044,53,77,4337,0.97,1.16632,-0.00390625,1.165344,-0.00390625,0,0,0,0,0,0,0,0,0,0,0,0,13.32,0,0,0,0,0,0,0,0,0,72,51,0,0,0,0,0,0,0,0,0,0,0,0,0,0,0,0,0,0,0,0,0,0,0,0,0,0,0,0,0,0,0,0,0,0,0,0,0,0,0,0,0,0,0,0,0,0,0,0,0,0,0,0,0,0,0,13.3,-0.08961306,0,16.91164,0.1634824,0.003829557,8.867277,0.8007895,1,9.129987
50.003,7.456454,4.026952,25.16266,-2.24353,-0.126358,-8.43808,87,88,0.2472279,10.02203,14.91291,0.04421009,902.4639,3.008213,-0.694117,-0.875128,0.5387338,-4.535887,-44.05446,-99.58051,-47.03955,108.5693,97.64706,1.26,1212.5,37,31,0,41.17647,41.56863,1.02517,18.77597,0.29,12.14011,261.1763,341,33.55791,5.605014,53,77,4337,0.97,1.168272,-0.00390625,1.173152,-0.00390625,0,0,0,0,0,0,0,0,0,0,0,0,13.32,0,0,0,0,0,0,0,0,0,72,51,0,0,0,0,0,0,0,0,0,0,0,0,0,0,0,0,0,0,0,0,0,0,0,0,0,0,0,0,0,0,0,0,0,0,0,0,0,0,0,0,0,0,0,0,0,0,0,0,0,0,0,0,0,0,0,13.4,-0.009560177,0,16.93994,0.169273,0.004342838,9.711778,0.8357496,1,9.129987
51.003,13.67017,7.007928,25.17363,-1.990433,-11.39906,-27.40289,87,88,1.139185,12.76998,14.91291,0.05517685,856.6464,5.235061,0.7649401,-1.266468,-1.241465,-2.232264,-43.69227,-96.50799,-41.99076,105.6965,79.21568,1.41,1656,37,31,0,42.7451,43.13726,1.661537,28.41896,0.44,21.1269,302.931,341.1,31.85419,5.607024,53,77,4337,0.97,1.405928,1,1.43472,-0.00390625,0,0,0,0,0,0,0,0,0,0,0,0,13.32,0,0,0,0,0,0,0,0,0,72,51,0,0,0,0,0,0,0,0,0,0,0,0,0,0,0,0,0,0,0,0,0,0,0,0,0,0,0,0,0,0,0,0,0,0,0,0,0,0,0,0,0,0,0,0,0,0,0,0,0,0,0,0,0,0,0,13.4,0.1531985,0,20.38596,0.1821433,0.005420122,11.26442,0.8648406,1,9.129987
52.003,13.67017,7.007928,25.17363,13.9801,16.02811,-0.2703094,87,88,1.139185,12.76998,14.91291,0.05517685,856.6464,5.235061,-0.203384,0.7280164,-1.523355,-3.120331,-45.85676,-96.47688,-43.42192,103.7377,79.21568,1.41,1656,37,31,0,42.7451,43.13726,1.661537,28.41896,0.44,21.1269,302.931,341.1,31.85419,5.607024,53,77,4337,0.97,1.405928,1,1.43472,-0.00390625,0,0,0,0,0,0,0,0,0,0,0,0,13.32,0,0,0,0,0,0,0,0,0,72,51,0,0,0,0,0,0,0,0,0,0,0,0,0,0,0,0,0,0,0,0,0,0,0,0,0,0,0,0,0,0,0,0,0,0,0,0,0,0,0,0,0,0,0,0,0,0,0,0,0,0,0,0,0,0,0,13.4,0.1531985,0,20.38596,0.1821433,0.005420122,11.26442,0.8648406,1,9.129987
53.003,18.01976,7.329016,25.18318,4.542694,-4.732391,-10.67802,87,88,1.219521,10.75943,18.01976,0.06473116,679.6453,5.47492,0.2134603,-0.02003507,-0.5629647,-1.707612,-44.25838,-96.12288,-41.12943,103.5642,60.39216,1.48,2055.5,37,31,0,43.52941,44.31372,1.568323,37.0261,0.51,22.09488,330.0463,341.2,25.27245,5.608683,53,77,4337,0.97,1.238056,0.3945313,1.221952,-0.00390625,0,0,0,0,0,0,0,0,0,0,0,0,13.32,0,0,0,0,0,0,0,0,0,72,51,0,0,0,0,0,0,0,0,0,0,0,0,0,0,0,0,0,0,0,0,0,0,0,0,0,0,0,0,0,0,0,0,0,0,0,0,0,0,0,0,0,0,0,0,0,0,0,0,0,0,0,0,0,0,0,13,0.2544293,0,17.95181,0.1961275,0.00635866,12.27269,0.8953181,1,9.129987
54.003,18.01976,7.329016,25.18318,1.086761,1.318542,2.67128,87,88,1.219521,10.75943,18.01976,0.06473116,679.6453,5.47492,0.9273183,0.3323864,0.7665611,1.833317,-46.69267,-96.94094,-40.06002,103.3105,60.39216,1.48,2055.5,37,31,0,43.52941,44.31372,1.568323,37.0261,0.51,22.09488,330.0463,341.4,25.27245,5.608683,53,77,4337,0.97,1.238056,0.3945313,1.221952,-0.00390625,0,0,0,0,0,0,0,0,0,0,0,0,13.32,0,0,0,0,0,0,0,0,0,72,51,0,0,0,0,0,0,0,0,0,0,0,0,0,0,0,0,0,0,0,0,0,0,0,0,0,0,0,0,0,0,0,0,0,0,0,0,0,0,0,0,0,0,0,0,0,0,0,0,0,0,0,0,0,0,0,13,0.2544293,0,17.95181,0.1961275,0.00635866,12.27269,0.8953181,1,9.129987
55.003,21.74799,4.756683,25.18966,-4.806412,-11.27861,-3.242493,87,88,1.01505,9.578743,21.74799,0.07120872,365.4861,3.553337,0.005344275,-0.4759949,-0.03871768,-0.3863778,-45.26073,-97.08607,-41.58282,103.2066,88.62745,1.51,1498.5,37,31,0,43.13726,43.92157,1.075641,27.53991,0.54,14.34004,332.8544,341.5,13.59051,5.609527,53,77,4337,0.97,1.257576,0.7265625,1.203408,-0.00390625,0,0,0,0,0,0,0,0,0,0,0,0,13.32,0,0,0,0,0,0,0,0,0,72,51,0,0,0,0,0,0,0,0,0,0,0,0,0,0,0,0,0,0,0,0,0,0,0,0,0,0,0,0,0,0,0,0,0,0,0,0,0,0,0,0,0,0,0,0,0,0,0,0,0,0,0,0,0,0,0,13,0.3454305,0,18.23485,0.2139336,0.006994963,12.37711,0.9243773,1,9.129987
56.003,21.74799,4.756683,25.18966,-0.9691467,-4.569656,-15.37549,87,88,1.01505,9.578743,21.74799,0.07120872,365.4861,3.553337,0.3998915,-0.2659824,-0.6029236,1.959423,-43.89385,-95.76125,-38.90453,101.4352,88.62745,1.51,1498.5,37,31,0,43.13726,43.92157,1.075641,27.53991,0.54,14.34004,332.8544,341.6,13.59051,5.609527,53,77,4337,0.97,1.257576,0.7265625,1.203408,-0.00390625,0,0,0,0,0,0,0,0,0,0,0,0,13.32,0,0,0,0,0,0,0,0,0,72,51,0,0,0,0,0,0,0,0,0,0,0,0,0,0,0,0,0,0,0,0,0,0,0,0,0,0,0,0,0,0,0,0,0,0,0,0,0,0,0,0,0,0,0,0,0,0,0,0,0,0,0,0,0,0,0,13,0.3454305,0,18.23485,0.2139336,0.006994963,12.37711,0.9243773,1,9.129987
57.003,25.47622,6.806786,25.19855,6.35202,9.771805,-14.53484,87,88,0.9341903,12.02232,25.47622,0.08010545,446.4706,5.084804,-0.09768344,-0.2977118,0.6153474,-0.6303462,-45.00523,-96.71909,-41.44067,102.7225,84.31373,1.49,1708.5,38,31,0,43.92157,43.92157,1.438727,30.98347,0.52,20.52051,342.7124,341.7,16.6019,5.610843,53,77,4337,0.97,1.42984,1.117188,1.387872,-0.00390625,0,0,0,0,0,0,0,0,0,0,0,0,13.32,0,0,0,0,0,0,0,0,0,72,51,0,0,0,0,0,0,0,0,0,0,0,0,0,0,0,0,0,0,0,0,0,0,0,0,0,0,0,0,0,0,0,0,0,0,0,0,0,0,0,0,0,0,0,0,0,0,0,0,0,0,0,0,0,0,0,13,0.3934657,0,20.73268,0.2337396,0.007868906,12.74368,0.9593455,1,9.129987
58.003,25.47622,6.806786,25.19855,-2.639816,0.5554199,-7.737732,87,88,0.9341903,12.02232,25.47622,0.08010545,446.4706,5.084804,-0.6450265,-0.4966303,-0.2401096,-3.163838,-44.5304,-97.88056,-44.90524,104.5038,84.31373,1.49,1708.5,38,31,0,43.92157,43.92157,1.438727,30.98347,0.52,20.52051,342.7124,341.8,16.6019,5.610843,53,77,4337,0.97,1.42984,1.117188,1.387872,-0.00390625,0,0,0,0,0,0,0,0,0,0,0,0,13.32,0,0,0,0,0,0,0,0,0,72,51,0,0,0,0,0,0,0,0,0,0,0,0,0,0,0,0,0,0,0,0,0,0,0,0,0,0,0,0,0,0,0,0,0,0,0,0,0,0,0,0,0,0,0,0,0,0,0,0,0,0,0,0,0,0,0,13,0.3934657,0,20.73268,0.2337396,0.007868906,12.74368,0.9593455,1,9.129987
59.003,28.58307,5.707999,25.20751,4.01796,0.4075775,-7.090485,87,88,0.8098217,9.23562,28.58307,0.08906186,333.7035,4.263988,-0.134783,-0.7526805,0.909977,-4.151331,-47.01752,-97.62762,-44.22724,102.5777,62.7451,1.3,1865,38,31,0,37.2549,38.82353,1.115912,29.41392,0.33,17.20798,341.7871,341.9,12.40868,5.611935,53,77,4337,0.97,1.423008,1.074219,1.388848,-0.00390625,0,0,0,0,0,0,0,0,0,0,0,0,13.32,0,0,0,0,0,0,0,0,0,72,51,0,0,0,0,0,0,0,0,0,0,0,0,0,0,0,0,0,0,0,0,0,0,0,0,0,0,0,0,0,0,0,0,0,0,0,0,0,0,0,0,0,0,0,0,0,0,0,0,0,0,0,0,0,0,0,13,0.368713,0,20.63362,0.260577,0.008748709,12.70927,0.988095,1,9.129987
60.004,28.58307,5.707999,25.20751,-0.8451233,-1.584854,0.9462738,87,88,0.8098217,9.23562,28.58307,0.08906186,333.7035,4.263988,-0.2866499,0.39599,0.004906535,-4.929698,-44.76793,-97.50356,-45.47152,104.1157,62.7451,1.3,1865,38,31,0,37.2549,38.82353,1.115912,29.41392,0.33,17.20798,341.7871,341.9,12.40868,5.611935,53,77,4337,0.97,1.423008,1.074219,1.388848,-0.00390625,0,0,0,0,0,0,0,0,0,0,0,0,13.32,0,0,0,0,0,0,0,0,0,72,51,0,0,0,0,0,0,0,0,0,0,0,0,0,0,0,0,0,0,0,0,0,0,0,0,0,0,0,0,0,0,0,0,0,0,0,0,0,0,0,0,0,0,0,0,0,0,0,0,0,0,0,0,0,0,0,13,0.368713,0,20.63362,0.260577,0.008748709,12.70927,0.988095,1,9.129987
61.004,29.82582,3.125715,25.21157,0.9349517,1.340118,6.448578,87,88,0.490335,7.036287,29.82582,0.09312008,175.1228,2.334971,-0.3459794,-0.2492269,-0.05036612,-3.952635,-42.90774,-97.64813,-45.91792,107.3708,92.54902,1.26,1340.5,38,31,0,37.2549,36.86274,0.7522288,20.49124,0.29,9.423135,328.1545,342,6.511901,5.612059,72,77,4337,0.97,1.286856,0.8046875,1.229272,-0.00390625,0,0,0,0,0,0,0,0,0,0,0,0,12.96,0,0,0,0,0,0,0,0,0,87,50,0,0,0,0,0,0,0,0,0,0,0,0,0,0,0,0,0,0,0,0,0,0,0,0,0,0,0,0,0,0,0,0,0,0,0,0,0,0,0,0,0,0,0,0,0,0,0,0,0,0,0,0,0,0,0,13,0.3686151,0,18.65941,0.283769,0.009147355,12.20235,1.026157,1,9.129987
62.004,29.82582,3.125715,25.21157,-2.711639,5.351151,-3.785568,87,88,0.490335,7.036287,29.82582,0.09312008,175.1228,2.334971,-0.2771809,0.03206763,-0.3699587,-3.77972,-43.50643,-97.65052,-45.1911,107.0022,92.54902,1.26,1340.5,38,31,0,37.2549,36.86274,0.7522288,20.49124,0.29,9.423135,328.1545,342.1,6.511901,5.612059,72,77,4337,0.97,1.286856,0.8046875,1.229272,-0.00390625,0,0,0,0,0,0,0,0,0,0,0,0,12.96,0,0,0,0,0,0,0,0,0,87,50,0,0,0,0,0,0,0,0,0,0,0,0,0,0,0,0,0,0,0,0,0,0,0,0,0,0,0,0,0,0,0,0,0,0,0,0,0,0,0,0,0,0,0,0,0,0,0,0,0,0,0,0,0,0,0,13,0.3686151,0,18.65941,0.283769,0.009147355,12.20235,1.026157,1,9.129987
63.004,31.06856,4.534582,25.21928,10.85062,-2.430099,-12.79219,87,88,0.2812176,9.969789,31.06856,0.1008285,243.8944,3.387423,0.2824104,-0.3301962,-0.5941914,-3.739047,-44.19819,-97.03946,-44.06867,105.4388,90.98039,1.21,1372.5,38,31,0,38.03922,39.21569,1.029338,20.14784,0.24,13.67047,319.5658,342.2,9.069158,5.612709,72,77,4337,0.97,1.201456,0.6132813,1.160952,-0.00390625,0,0,0,0,0,0,0,0,0,0,0,0,12.96,0,0,0,0,0,0,0,0,0,87,50,0,0,0,0,0,0,0,0,0,0,0,0,0,0,0,0,0,0,0,0,0,0,0,0,0,0,0,0,0,0,0,0,0,0,0,0,0,0,0,0,0,0,0,0,0,0,0,0,0,0,0,0,0,0,0,13,0.427144,0,17.42111,0.3155171,0.009904564,11.88298,1.055227,1,9.129987
64.004,31.06856,4.534582,25.21928,3.558334,-0.2155762,7.343384,87,88,0.2812176,9.969789,31.06856,0.1008285,243.8944,3.387423,0.3629926,-0.3177891,-1.219774,-4.701038,-43.40805,-97.34379,-44.49393,106.0756,90.98039,1.21,1372.5,38,31,0,38.03922,39.21569,1.029338,20.14784,0.24,13.67047,319.5658,342.2,9.069158,5.612709,72,77,4337,0.97,1.201456,0.6132813,1.160952,-0.00390625,0,0,0,0,0,0,0,0,0,0,0,0,12.96,0,0,0,0,0,0,0,0,0,87,50,0,0,0,0,0,0,0,0,0,0,0,0,0,0,0,0,0,0,0,0,0,0,0,0,0,0,0,0,0,0,0,0,0,0,0,0,0,0,0,0,0,0,0,0,0,0,0,0,0,0,0,0,0,0,0,13,0.427144,0,17.42111,0.3155171,0.009904564,11.88298,1.055227,1,9.129987
65.004,32.3113,4.806567,25.22554,-8.268417,-5.781784,1.071823,87,88,0.2818791,12.6454,32.3113,0.1070907,248.5801,3.590601,-0.03277081,-0.6233711,-0.2687132,-4.775884,-44.74297,-97.22734,-44.9688,105.7519,99.21568,1.27,1147,35,31,0,40.78431,41.17647,1.084012,17.6725,0.3,14.49042,314.4751,342.2,9.243391,5.613262,72,77,4337,0.97,1.171688,0.5234375,1.149728,-0.00390625,0,0,0,0,0,0,0,0,0,0,0,0,12.96,0,0,0,0,0,0,0,0,0,87,50,0,0,0,0,0,0,0,0,0,0,0,0,0,0,0,0,0,0,0,0,0,0,0,0,0,0,0,0,0,0,0,0,0,0,0,0,0,0,0,0,0,0,0,0,0,0,0,0,0,0,0,0,0,0,0,13,0.6346307,0,16.98948,0.3405381,0.01051972,11.69368,1.090214,1,9.129987
66.006,32.3113,4.806567,25.22554,7.489044,-11.86607,-31.54892,87,88,0.2818791,12.6454,32.3113,0.1070907,248.5801,3.590601,-0.2953122,-0.7122102,1.056782,-6.228164,-46.06058,-97.66544,-46.97634,105.2543,99.21568,1.27,1147,35,31,0,40.78431,41.17647,1.084012,17.6725,0.3,14.49042,314.4751,342.3,9.243391,5.613262,72,77,4337,0.97,1.171688,0.5234375,1.149728,-0.00390625,0,0,0,0,0,0,0,0,0,0,0,0,12.96,0,0,0,0,0,0,0,0,0,87,50,0,0,0,0,0,0,0,0,0,0,0,0,0,0,0,0,0,0,0,0,0,0,0,0,0,0,0,0,0,0,0,0,0,0,0,0,0,0,0,0,0,0,0,0,0,0,0,0,0,0,0,0,0,0,0,13,0.6346307,0,16.98948,0.3405381,0.01051972,11.69368,1.090214,1,9.129987
67.004,34.17542,5.224221,25.23372,-11.56598,-10.71323,14.95448,87,88,0.3579962,13.1536,34.17542,0.1152754,255.4427,3.902596,-0.003761949,0.8699659,1.705963,-4.629114,-45.48743,-98.5894,-46.89265,106.4205,84.31373,1.29,1198.5,35,31,0,38.03922,38.03922,1.280352,18.9394,0.32,15.74953,309.2588,342.3,9.498576,5.614001,72,77,4337,0.97,1.270752,0.7695313,1.282464,-0.00390625,0,0,0,0,0,0,0,0,0,0,0,0,12.96,0,0,0,0,0,0,0,0,0,87,50,0,0,0,0,0,0,0,0,0,0,0,0,0,0,0,0,0,0,0,0,0,0,0,0,0,0,0,0,0,0,0,0,0,0,0,0,0,0,0,0,0,0,0,0,0,0,0,0,0,0,0,0,0,0,0,13,0.720654,0,18.4259,0.3727473,0.01132371,11.49971,1.119338,1,9.129987
68.004,35.41816,4.002756,25.23894,-3.958069,-20.57632,-12.96527,87,88,0.357843,9.856139,35.41816,0.1204937,188.8508,2.990138,-0.2771359,-0.2935937,-1.352055,-9.312875,-47.26975,-99.67397,-57.30016,108.366,83.92157,1.27,1225.5,35,31,0,35.29412,29.01961,1.104776,19.06582,0.3,12.06716,301.0834,342.3,7.022374,5.61424,72,77,4337,0.97,2.494168,2.21875,3.4282,-0.00390625,0,0,0,0,0,0,0,0,0,0,0,0,12.96,0,0,0,0,0,0,0,0,0,87,50,0,0,0,0,0,0,0,0,0,0,0,0,0,0,0,0,0,0,0,0,0,0,0,0,0,0,0,0,0,0,0,0,0,0,0,0,0,0,0,0,0,0,0,0,0,0,0,0,0,0,0,0,0,0,0,13,0.6567537,0,36.16544,0.4002004,0.01183632,11.19572,1.14903,1,9.129987
69.004,35.41816,4.002756,25.23894,-13.91707,1.580505,-14.37765,87,88,0.357843,9.856139,35.41816,0.1204937,188.8508,2.990138,1.776118,0.6496792,0.8603637,-3.165179,-48.27421,-98.11946,-45.4602,105.5528,83.92157,1.27,1225.5,35,31,0,35.29412,29.01961,1.104776,19.06582,0.3,12.06716,301.0834,342.2,7.022374,5.61424,72,77,4337,0.97,2.494168,2.21875,3.4282,-0.00390625,0,0,0,0,0,0,0,0,0,0,0,0,12.96,0,0,0,0,0,0,0,0,0,87,50,0,0,0,0,0,0,0,0,0,0,0,0,0,0,0,0,0,0,0,0,0,0,0,0,0,0,0,0,0,0,0,0,0,0,0,0,0,0,0,0,0,0,0,0,0,0,0,0,0,0,0,0,0,0,0,13,0.6567537,0,36.16544,0.4002004,0.01183632,11.19572,1.14903,1,9.129987
70.004,35.41816,2.046108,25.24169,-1.539429,-0.3319855,-8.568161,87,88,0.1602059,5.24359,35.41816,0.1232393,96.53579,1.528483,-0.5874337,-0.3993744,-0.2955214,-6.824538,-47.01895,-98.90675,-51.261,107.7267,0,1.04,1177.5,35,31,0,24.31373,25.09804,0.5548726,15.00143,0.07,6.16843,287.394,342.2,3.589661,5.613889,72,77,4337,0.97,2.050576,1.859375,1.712392,-0.00390625,0,0,0,0,0,0,0,0,0,0,0,0,12.96,0,0,0,0,0,0,0,0,0,87,50,0,0,0,0,0,0,0,0,0,0,0,0,0,0,0,0,0,0,0,0,0,0,0,0,0,0,0,0,0,0,0,0,0,0,0,0,0,0,0,0,0,0,0,0,0,0,0,0,0,0,0,0,0,0,0,13,0.5248582,0,29.73335,0.4288164,0.01210602,10.68668,1.178789,1,9.129987
71.004,35.41816,2.046108,25.24169,-8.405014,-3.688553,19.77716,87,88,0.1602059,5.24359,35.41816,0.1232393,96.53579,1.528483,0.58868,-0.08466174,0.4262134,-5.13928,-46.92212,-99.81479,-50.57367,109.0999,0,1.04,1177.5,35,31,0,24.31373,25.09804,0.5548726,15.00143,0.07,6.16843,287.394,342.1,3.589661,5.613889,72,77,4337,0.97,2.050576,1.859375,1.712392,-0.00390625,0,0,0,0,0,0,0,0,0,0,0,0,12.96,0,0,0,0,0,0,0,0,0,87,50,0,0,0,0,0,0,0,0,0,0,0,0,0,0,0,0,0,0,0,0,0,0,0,0,0,0,0,0,0,0,0,0,0,0,0,0,0,0,0,0,0,0,0,0,0,0,0,0,0,0,0,0,0,0,0,13,0.5248582,0,29.73335,0.4288164,0.01210602,10.68668,1.178789,1,9.129987
72.004,35.41816,0,25.24169,-2.751419,0.5911255,-0.05036926,87,88,2.775558E-17,0,35.41816,0.1232393,0,0,0.2488269,0.5222262,0.8562695,-4.930876,-46.60883,-100.0669,-51.05946,109.0375,60,1.07,1176.5,34,31,0,29.41176,29.41176,0.7660603,15.42106,0.1,0,269.818,342.1,0,5.612951,72,77,4337,0.97,1.560624,1.3125,1.602104,-0.00390625,0,0,0,0,0,0,0,0,0,0,0,0,12.96,0,0,0,0,0,0,0,0,0,87,50,0,0,0,0,0,0,0,0,0,0,0,0,0,0,0,0,0,0,0,0,0,0,0,0,0,0,0,0,0,0,0,0,0,0,0,0,0,0,0,0,0,0,0,0,0,0,0,0,0,0,0,0,0,0,0,13,0.4128495,0,22.62905,0.4567497,0.01210602,10.03312,1.213775,1,9.129987
73.005,35.41816,0,25.24169,2.095779,-5.017441,2.196243,87,88,2.775558E-17,0,35.41816,0.1232393,0,0,-0.1683943,-0.06232184,-0.5498698,-3.594333,-46.02748,-97.87318,-45.80214,106.7931,60,1.07,1176.5,34,31,0,29.41176,29.41176,0.7660603,15.42106,0.1,0,269.818,342.1,0,5.612951,72,77,4337,0.97,1.560624,1.3125,1.602104,-0.00390625,0,0,0,0,0,0,0,0,0,0,0,0,12.96,0,0,0,0,0,0,0,0,0,87,50,0,0,0,0,0,0,0,0,0,0,0,0,0,0,0,0,0,0,0,0,0,0,0,0,0,0,0,0,0,0,0,0,0,0,0,0,0,0,0,0,0,0,0,0,0,0,0,0,0,0,0,0,0,0,0,13,0.4128495,0,22.62905,0.4567497,0.01210602,10.03312,1.213775,1,9.129987
74.004,35.41816,2.1706,25.24508,-6.93364,1.890823,-8.381546,87,88,2.775558E-17,5.453782,35.41816,0.1266325,102.4093,1.621481,0.517246,0.1529516,0.6733813,-3.189005,-45.78835,-98.41295,-45.6394,107.8122,69.80392,1.14,1201,34,31,0,31.37255,31.37255,0.8548235,16.82666,0.17,6.543736,258.4132,342.1,3.808067,5.612589,72,77,4337,0.97,1.457168,1.144531,1.481568,-0.00390625,0,0,0,0,0,0,0,0,0,0,0,0,12.96,0,0,0,0,0,0,0,0,0,87,50,0,0,0,0,0,0,0,0,0,0,0,0,0,0,0,0,0,0,0,0,0,0,0,0,0,0,0,0,0,0,0,0,0,0,0,0,0,0,0,0,0,0,0,0,0,0,0,0,0,0,0,0,0,0,0,13,0.3218483,0,21.12894,0.4900388,0.01243934,9.609035,1.24282,1,9.129987
75.005,35.41816,2.1706,25.24508,-0.6027069,0.4571838,-5.162872,87,88,2.775558E-17,5.453782,35.41816,0.1266325,102.4093,1.621481,0.109845,-0.4049508,0.4567413,-3.451762,-45.02928,-97.9819,-45.27692,107.5879,69.80392,1.14,1201,34,31,0,31.37255,31.37255,0.8548235,16.82666,0.17,6.543736,258.4132,342.2,3.808067,5.612589,72,77,4337,0.97,1.457168,1.144531,1.481568,-0.00390625,0,0,0,0,0,0,0,0,0,0,0,0,12.96,0,0,0,0,0,0,0,0,0,87,50,0,0,0,0,0,0,0,0,0,0,0,0,0,0,0,0,0,0,0,0,0,0,0,0,0,0,0,0,0,0,0,0,0,0,0,0,0,0,0,0,0,0,0,0,0,0,0,0,0,0,0,0,0,0,0,13,0.3218483,0,21.12894,0.4900388,0.01243934,9.609035,1.24282,1,9.129987
76.005,35.41816,2.649902,25.24853,6.743561,-1.473785,-7.480423,87,88,2.775558E-17,6.603082,35.41816,0.1300849,125.0229,1.979529,-0.6346372,-0.6988919,-0.4603306,-5.624483,-46.12626,-97.70698,-47.90059,107.0227,66.66666,1.15,1211,34,31,0,30.58824,30.98039,0.8787127,17.1156,0.18,7.988695,251.3786,342.2,4.648947,5.612435,72,77,4337,0.97,1.49084,1.199219,1.517192,-0.00390625,0,0,0,0,0,0,0,0,0,0,0,0,12.96,0,0,0,0,0,0,0,0,0,87,50,0,0,0,0,0,0,0,0,0,0,0,0,0,0,0,0,0,0,0,0,0,0,0,0,0,0,0,0,0,0,0,0,0,0,0,0,0,0,0,0,0,0,0,0,0,0,0,0,0,0,0,0,0,0,0,13,0.2260114,0,21.61718,0.5174859,0.01277848,9.347456,1.272669,1,9.129987
77.005,35.41816,2.649902,25.24853,0.08274841,-5.992905,-9.532425,87,88,2.775558E-17,6.603082,35.41816,0.1300849,125.0229,1.979529,-0.2970401,-0.4528413,0.4346628,-6.588364,-47.62946,-96.70576,-48.44028,105.788,66.66666,1.15,1211,34,31,0,30.58824,30.98039,0.8787127,17.1156,0.18,7.988695,251.3786,342.3,4.648947,5.612435,72,77,4337,0.97,1.49084,1.199219,1.517192,-0.00390625,0,0,0,0,0,0,0,0,0,0,0,0,12.96,0,0,0,0,0,0,0,0,0,87,50,0,0,0,0,0,0,0,0,0,0,0,0,0,0,0,0,0,0,0,0,0,0,0,0,0,0,0,0,0,0,0,0,0,0,0,0,0,0,0,0,0,0,0,0,0,0,0,0,0,0,0,0,0,0,0,13,0.2260114,0,21.61718,0.5174859,0.01277848,9.347456,1.272669,1,9.129987
78.005,36.03953,2.513244,25.25192,-6.301956,-7.670594,8.075241,87,88,0.07706607,6.224007,36.03953,0.1334689,116.5309,1.877443,0.512503,-0.3887955,0.03750631,-7.628414,-47.12461,-97.38506,-50.18546,106.4655,66.27451,1.13,1218.5,34,31,0,30.58824,30.58824,0.8654095,16.92209,0.16,7.57671,244.2153,342.4,4.333176,5.612213,72,77,4337,0.97,1.509384,1.230469,1.519144,-0.00390625,0,0,0,0,0,0,0,0,0,0,0,0,12.96,0,0,0,0,0,0,0,0,0,87,50,0,0,0,0,0,0,0,0,0,0,0,0,0,0,0,0,0,0,0,0,0,0,0,0,0,0,0,0,0,0,0,0,0,0,0,0,0,0,0,0,0,0,0,0,0,0,0,0,0,0,0,0,0,0,0,13,0.1752971,0,21.88607,0.5465214,0.0131109,9.081091,1.301801,1,9.129987
79.005,36.03953,2.513244,25.25192,-8.630585,-3.378632,17.92378,87,88,0.07706607,6.224007,36.03953,0.1334689,116.5309,1.877443,0.7640177,1.775101,0.8548424,-3.386375,-47.0419,-95.56393,-43.30201,103.935,66.27451,1.13,1218.5,34,31,0,30.58824,30.58824,0.8654095,16.92209,0.16,7.57671,244.2153,342.4,4.333176,5.612213,72,77,4337,0.97,1.509384,1.230469,1.519144,-0.00390625,0,0,0,0,0,0,0,0,0,0,0,0,12.96,0,0,0,0,0,0,0,0,0,87,50,0,0,0,0,0,0,0,0,0,0,0,0,0,0,0,0,0,0,0,0,0,0,0,0,0,0,0,0,0,0,0,0,0,0,0,0,0,0,0,0,0,0,0,0,0,0,0,0,0,0,0,0,0,0,0,13,0.1752971,0,21.88607,0.5465214,0.0131109,9.081091,1.301801,1,9.129987
80.005,36.03953,2.513244,25.25192,15.9151,20.81816,-2.930115,87,88,0.07706607,6.224007,36.03953,0.1334689,116.5309,1.877443,-1.396376,0.9565576,-0.7800831,-7.219818,-46.96503,-97.43546,-47.97074,106.123,66.27451,1.13,1218.5,34,31,0,30.58824,30.58824,0.8654095,16.92209,0.16,7.57671,244.2153,342.5,4.333176,5.612213,72,77,4337,0.97,1.509384,1.230469,1.519144,-0.00390625,0,0,0,0,0,0,0,0,0,0,0,0,12.96,0,0,0,0,0,0,0,0,0,87,50,0,0,0,0,0,0,0,0,0,0,0,0,0,0,0,0,0,0,0,0,0,0,0,0,0,0,0,0,0,0,0,0,0,0,0,0,0,0,0,0,0,0,0,0,0,0,0,0,0,0,0,0,0,0,0,13,0.1752971,0,21.88607,0.5465214,0.0131109,9.081091,1.301801,1,9.129987
81.005,36.03953,2.434447,25.25514,-5.308029,3.321686,-0.05227661,90,92,0.07706607,5.994431,36.03953,0.1366896,112.8774,1.81858,0.106578,-0.1027998,1.531735,-3.941304,-47.66484,-97.06141,-44.48131,104.9805,62.7451,1.11,1225.5,35,31,0,28.62745,27.45098,0.8380466,16.71808,0.14,7.339159,237.9211,342.5,4.197319,5.61199,92,77,4338,0.97,1.574288,1.339844,1.701656,-0.00390625,0,0,0,0,0,0,0,0,0,0,0,0,12.98,0,0,0,0,0,0,0,0,0,78,49,0,0,0,0,0,0,0,0,0,0,0,0,0,0,0,0,0,0,0,0,0,0,0,0,0,0,0,0,0,0,0,0,0,0,0,0,0,0,0,0,0,0,0,0,0,0,0,0,0,0,0,0,0,0,0,13,0.1433576,0,22.82718,0.5745166,0.01342727,8.847039,1.354945,1,9.129987
82.005,36.03953,2.434447,25.25514,4.998703,16.69106,5.752762,90,92,0.07706607,5.994431,36.03953,0.1366896,112.8774,1.81858,0.1695913,-0.1080025,-0.2297144,-5.534279,-46.8089,-98.06934,-47.28215,107.7273,62.7451,1.11,1225.5,35,31,0,28.62745,27.45098,0.8380466,16.71808,0.14,7.339159,237.9211,342.5,4.197319,5.61199,92,77,4338,0.97,1.574288,1.339844,1.701656,-0.00390625,0,0,0,0,0,0,0,0,0,0,0,0,12.98,0,0,0,0,0,0,0,0,0,78,49,0,0,0,0,0,0,0,0,0,0,0,0,0,0,0,0,0,0,0,0,0,0,0,0,0,0,0,0,0,0,0,0,0,0,0,0,0,0,0,0,0,0,0,0,0,0,0,0,0,0,0,0,0,0,0,13,0.1433576,0,22.82718,0.5745166,0.01342727,8.847039,1.354945,1,9.129987
83.005,36.03953,2.049529,25.25995,6.479553,-0.9851532,-28.89479,90,92,2.775558E-17,5.081881,36.03953,0.1415048,95.02998,1.531039,0.1724628,0.08841017,-1.814673,-4.368117,-47.27301,-96.8745,-45.52383,106.6585,58.43137,1.05,1217,35,31,0,25.88235,25.88235,0.7433828,15.65375,0.08,6.178742,226.091,342.6,3.533668,5.611338,92,77,4338,0.97,1.632848,1.414063,1.70068,-0.00390625,0,0,0,0,0,0,0,0,0,0,0,0,12.98,0,0,0,0,0,0,0,0,0,78,49,0,0,0,0,0,0,0,0,0,0,0,0,0,0,0,0,0,0,0,0,0,0,0,0,0,0,0,0,0,0,0,0,0,0,0,0,0,0,0,0,0,0,0,0,0,0,0,0,0,0,0,0,0,0,0,13,0.1190536,0,23.6763,0.6258753,0.01390027,8.407142,1.383671,1,9.129987
84.007,36.03953,1.833373,25.26234,1.328629,-0.03625488,6.764557,90,92,2.775558E-17,4.560905,36.03953,0.14389,85.00755,1.369566,0.7382404,0.5476158,-0.3027251,-3.460455,-47.63191,-98.11022,-44.24037,105.468,57.2549,1.06,1213,35,31,0,24.31373,23.13725,0.7190611,15.75089,0.09,5.527095,220.0279,342.6,3.160986,5.610926,92,77,4338,0.97,1.710928,1.511719,1.773392,-0.00390625,0,0,0,0,0,0,0,0,0,0,0,0,12.98,0,0,0,0,0,0,0,0,0,78,49,0,0,0,0,0,0,0,0,0,0,0,0,0,0,0,0,0,0,0,0,0,0,0,0,0,0,0,0,0,0,0,0,0,0,0,0,0,0,0,0,0,0,0,0,0,0,0,0,0,0,0,0,0,0,0,13,0.08698181,0,24.80846,0.6539624,0.01413458,8.181686,1.413778,1,9.129987
85.005,36.03953,1.833373,25.26234,1.202118,-16.35567,11.29446,90,92,2.775558E-17,4.560905,36.03953,0.14389,85.00755,1.369566,-0.3879261,-0.7613056,-0.9729827,-3.133218,-47.01397,-96.83481,-43.23903,105.4318,57.2549,1.06,1213,35,31,0,24.31373,23.13725,0.7190611,15.75089,0.09,5.527095,220.0279,342.7,3.160986,5.610926,92,77,4338,0.97,1.710928,1.511719,1.773392,-0.00390625,0,0,0,0,0,0,0,0,0,0,0,0,12.98,0,0,0,0,0,0,0,0,0,78,49,0,0,0,0,0,0,0,0,0,0,0,0,0,0,0,0,0,0,0,0,0,0,0,0,0,0,0,0,0,0,0,0,0,0,0,0,0,0,0,0,0,0,0,0,0,0,0,0,0,0,0,0,0,0,0,13,0.08698181,0,24.80846,0.6539624,0.01413458,8.181686,1.413778,1,9.129987
86.005,36.03953,1.731103,25.26466,-4.886841,2.290283,4.9552,90,92,2.775558E-17,4.353141,36.03953,0.1462141,80.26563,1.293169,0.5482383,0.7342137,-0.1782824,-1.805234,-47.61412,-95.30766,-40.65579,102.8701,47.84314,1.05,1200,35,31,0,23.13725,23.13725,0.6951861,15.43508,0.08,5.218781,214.1017,342.7,2.984659,5.610472,92,77,4338,0.97,1.799744,1.613281,1.7934,-0.00390625,0,0,0,0,0,0,0,0,0,0,0,0,12.98,0,0,0,0,0,0,0,0,0,78,49,0,0,0,0,0,0,0,0,0,0,0,0,0,0,0,0,0,0,0,0,0,0,0,0,0,0,0,0,0,0,0,0,0,0,0,0,0,0,0,0,0,0,0,0,0,0,0,0,0,0,0,0,0,0,0,13,0.0474544,0,26.09629,0.6829189,0.01436288,7.961321,1.442788,1,9.129987
87.005,36.03953,1.731103,25.26466,-7.081284,4.213882,10.38217,90,92,2.775558E-17,4.353141,36.03953,0.1462141,80.26563,1.293169,0.02720075,0.77231,-0.1826516,-0.9568502,-48.42175,-95.08284,-39.59122,100.9857,47.84314,1.05,1200,35,31,0,23.13725,23.13725,0.6951861,15.43508,0.08,5.218781,214.1017,342.8,2.984659,5.610472,92,77,4338,0.97,1.799744,1.613281,1.7934,-0.00390625,0,0,0,0,0,0,0,0,0,0,0,0,12.98,0,0,0,0,0,0,0,0,0,78,49,0,0,0,0,0,0,0,0,0,0,0,0,0,0,0,0,0,0,0,0,0,0,0,0,0,0,0,0,0,0,0,0,0,0,0,0,0,0,0,0,0,0,0,0,0,0,0,0,0,0,0,0,0,0,0,13,0.0474544,0,26.09629,0.6829189,0.01436288,7.961321,1.442788,1,9.129987
88.005,35.41816,1.45354,25.26656,10.3371,-12.84012,-15.16545,90,92,-0.07978298,3.647564,36.03953,0.1481096,68.57831,1.085823,-0.4957135,-1.377959,-1.459261,-2.230049,-47.61714,-95.8638,-40.55474,101.6712,56.07843,1.05,1202.5,35,31,0,25.4902,25.4902,0.7061187,15.46724,0.08,4.382007,208.4635,342.9,2.550068,5.60997,92,77,4338,0.97,1.649928,1.4375,1.666032,-0.00390625,0,0,0,0,0,0,0,0,0,0,0,0,12.98,0,0,0,0,0,0,0,0,0,78,49,0,0,0,0,0,0,0,0,0,0,0,0,0,0,0,0,0,0,0,0,0,0,0,0,0,0,0,0,0,0,0,0,0,0,0,0,0,0,0,0,0,0,0,0,0,0,0,0,0,0,0,0,0,0,0,13,-0.0005433814,0,23.92396,0.7104821,0.01454907,7.751666,1.478152,1,9.129987
89.005,35.41816,1.45354,25.26656,0.932312,-9.096771,5.159515,90,92,-0.07978298,3.647564,36.03953,0.1481096,68.57831,1.085823,-0.3195654,0.5524805,-0.6848291,-4.104567,-44.36381,-95.02914,-41.15905,104.7636,56.07843,1.05,1202.5,35,31,0,25.4902,25.4902,0.7061187,15.46724,0.08,4.382007,208.4635,343,2.550068,5.60997,92,77,4338,0.97,1.649928,1.4375,1.666032,-0.00390625,0,0,0,0,0,0,0,0,0,0,0,0,12.98,0,0,0,0,0,0,0,0,0,78,49,0,0,0,0,0,0,0,0,0,0,0,0,0,0,0,0,0,0,0,0,0,0,0,0,0,0,0,0,0,0,0,0,0,0,0,0,0,0,0,0,0,0,0,0,0,0,0,0,0,0,0,0,0,0,0,13,-0.0005433814,0,23.92396,0.7104821,0.01454907,7.751666,1.478152,1,9.129987
90.005,35.41816,1.987696,25.26971,-0.3138733,-1.056137,-4.766693,90,92,-0.07978298,4.990069,36.03953,0.1512662,93.7799,1.484848,-0.01999932,0.2915582,-0.6490024,-0.0222063,-42.36669,-94.41939,-39.02287,103.6019,60.39216,1.12,1202,35,31,0,27.84314,27.84314,0.8220924,16.49153,0.15,5.992334,203.2576,343.1,3.487184,5.609541,92,77,4338,0.97,1.643584,1.441406,1.604544,-0.00390625,0,0,0,0,0,0,0,0,0,0,0,0,12.98,0,0,0,0,0,0,0,0,0,78,49,0,0,0,0,0,0,0,0,0,0,0,0,0,0,0,0,0,0,0,0,0,0,0,0,0,0,0,0,0,0,0,0,0,0,0,0,0,0,0,0,0,0,0,0,0,0,0,0,0,0,0,0,0,0,0,13,-0.0005433814,0,23.83197,0.7442093,0.01485915,7.558085,1.507266,1,9.129987
91.005,35.41816,1.987696,25.26971,-4.302917,11.75658,11.35762,90,92,-0.07978298,4.990069,36.03953,0.1512662,93.7799,1.484848,1.041577,-1.234398,0.5306924,-3.215181,-43.59149,-96.50103,-44.25565,107.4877,60.39216,1.12,1202,35,31,0,27.84314,27.84314,0.8220924,16.49153,0.15,5.992334,203.2576,343.2,3.487184,5.609541,92,77,4338,0.97,1.643584,1.441406,1.604544,-0.00390625,0,0,0,0,0,0,0,0,0,0,0,0,12.98,0,0,0,0,0,0,0,0,0,78,49,0,0,0,0,0,0,0,0,0,0,0,0,0,0,0,0,0,0,0,0,0,0,0,0,0,0,0,0,0,0,0,0,0,0,0,0,0,0,0,0,0,0,0,0,0,0,0,0,0,0,0,0,0,0,0,13,-0.0005433814,0,23.83197,0.7442093,0.01485915,7.558085,1.507266,1,9.129987
92.005,35.41816,1.765859,25.27201,8.798035,28.62634,29.11749,90,92,2.775558E-17,4.479738,36.03953,0.1535645,83.31358,1.319132,0.5603384,2.005084,0.5201557,0.3735352,-46.63851,-95.67302,-40.42196,105.8959,55.68628,1.07,1189.5,35,31,0,23.92157,23.52941,0.6784574,15.59145,0.1,5.323559,198.9755,343.3,3.097996,5.609128,92,77,4338,0.97,1.748992,1.59375,1.975424,-0.00390625,0,0,0,0,0,0,0,0,0,0,0,0,12.98,0,0,0,0,0,0,0,0,0,78,49,0,0,0,0,0,0,0,0,0,0,0,0,0,0,0,0,0,0,0,0,0,0,0,0,0,0,0,0,0,0,0,0,0,0,0,0,0,0,0,0,0,0,0,0,0,0,0,0,0,0,0,0,0,0,0,13,-0.0005433814,0,25.36038,0.7717757,0.01508492,7.398858,1.537396,1,9.129987
93.005,35.41816,1.403335,25.27389,9.865158,2.005356,-15.53914,90,92,2.775558E-17,3.624045,36.03953,0.1554445,66.20962,1.048319,0.5329815,0.602413,-1.663543,-3.654618,-44.25904,-96.65202,-43.84693,105.1997,10.58823,1.03,1168.5,35,31,0,16.47059,15.68627,0.5908813,14.74363,0.06,4.230653,194.2608,343.4,2.461989,5.608594,92,77,4338,0.97,9.219784,3.410156,12.95445,-0.00390625,0,0,0,0,0,0,0,0,0,0,0,0,12.98,0,0,0,0,0,0,0,0,0,78,49,0,0,0,0,0,0,0,0,0,0,0,0,0,0,0,0,0,0,0,0,0,0,0,0,0,0,0,0,0,0,0,0,0,0,0,0,0,0,0,0,0,0,0,0,0,0,0,0,0,0,0,0,0,0,0,13,-0.0005433814,0,133.6869,0.8001847,0.0152696,7.223542,1.566122,1,9.129987
94.005,35.41816,1.403335,25.27389,-35.98293,1.649231,18.04376,90,92,2.775558E-17,3.624045,36.03953,0.1554445,66.20962,1.048319,-0.1808038,1.146978,3.063806,-5.303258,-41.10813,-91.60092,-39.3683,101.4343,10.58823,1.03,1168.5,35,31,0,16.47059,15.68627,0.5908813,14.74363,0.06,4.230653,194.2608,343.5,2.461989,5.608594,92,77,4338,0.97,9.219784,3.410156,12.95445,-0.00390625,0,0,0,0,0,0,0,0,0,0,0,0,12.98,0,0,0,0,0,0,0,0,0,78,49,0,0,0,0,0,0,0,0,0,0,0,0,0,0,0,0,0,0,0,0,0,0,0,0,0,0,0,0,0,0,0,0,0,0,0,0,0,0,0,0,0,0,0,0,0,0,0,0,0,0,0,0,0,0,0,13,-0.0005433814,0,133.6869,0.8001847,0.0152696,7.223542,1.566122,1,9.129987
95.007,35.41816,1.403335,25.27389,16.60605,14.27026,11.52354,90,92,2.775558E-17,3.624045,36.03953,0.1554445,66.20962,1.048319,-1.701701,-1.375481,2.235173,-1.914461,-45.55586,-95.92395,-41.96419,103.9715,10.58823,1.03,1168.5,35,31,0,16.47059,15.68627,0.5908813,14.74363,0.06,4.230653,194.2608,343.6,2.461989,5.608594,92,77,4338,0.97,9.219784,3.410156,12.95445,-0.00390625,0,0,0,0,0,0,0,0,0,0,0,0,12.98,0,0,0,0,0,0,0,0,0,78,49,0,0,0,0,0,0,0,0,0,0,0,0,0,0,0,0,0,0,0,0,0,0,0,0,0,0,0,0,0,0,0,0,0,0,0,0,0,0,0,0,0,0,0,0,0,0,0,0,0,0,0,0,0,0,0,13,-0.0005433814,0,133.6869,0.8001847,0.0152696,7.223542,1.566122,1,9.129987
96.006,33.55404,0.2349107,25.2742,17.89412,14.16951,6.270142,90,92,-0.2389746,0.6164047,36.03953,0.1557514,11.69886,0.1754829,0.8898962,-0.1214669,-0.4555236,-0.4280435,-45.35044,-95.46078,-38.99503,102.9862,17.64706,1.01,1150,32,31,0,23.92157,23.52941,0.5295441,14.22845,0.04,0.7081885,188.4839,343.5,0.4350195,5.607787,92,77,4338,0.97,1.963224,1.792969,1.71044,-0.00390625,0,0,0,0,0,0,0,0,0,0,0,0,12.98,0,0,0,0,0,0,0,0,0,78,49,0,0,0,0,0,0,0,0,0,0,0,0,0,0,0,0,0,0,0,0,0,0,0,0,0,0,0,0,0,0,0,0,0,0,0,0,0,0,0,0,0,0,0,0,0,0,0,0,0,0,0,0,0,0,0,13,-0.04833831,0,28.46675,0.8263381,0.01529974,7.008729,1.601159,1,9.129987
97.006,33.55404,0.5821116,25.27511,15.02931,8.688431,-4.872528,90,92,-0.2389746,1.551062,36.03953,0.1566601,28.98993,0.4348489,0.001304222,0.7254536,-0.8210208,-2.295409,-45.12732,-94.1978,-41.11044,102.2583,62.35294,1.1,1132.5,32,31,0,29.01961,30.98039,0.7922074,15.41055,0.13,1.7549,182.6358,343.6,1.077984,5.606937,92,77,4338,0.97,1.579656,1.339844,1.560624,-0.00390625,0,0,0,0,0,0,0,0,0,0,0,0,12.98,0,0,0,0,0,0,0,0,0,78,49,0,0,0,0,0,0,0,0,0,0,0,0,0,0,0,0,0,0,0,0,0,0,0,0,0,0,0,0,0,0,0,0,0,0,0,0,0,0,0,0,0,0,0,0,0,0,0,0,0,0,0,0,0,0,0,13,-0.06375153,0,22.90501,0.8577732,0.01538901,6.791269,1.630203,1,9.129987
98.006,33.55404,0.5821116,25.27511,-9.930374,-2.760269,-1.687927,90,92,-0.2389746,1.551062,36.03953,0.1566601,28.98993,0.4348489,-0.7041981,0.7482445,1.451321,-6.169442,-44.63126,-95.31874,-44.44568,105.305,62.35294,1.1,1132.5,32,31,0,29.01961,30.98039,0.7922074,15.41055,0.13,1.7549,182.6358,343.7,1.077984,5.606937,92,77,4338,0.97,1.579656,1.339844,1.560624,-0.00390625,0,0,0,0,0,0,0,0,0,0,0,0,12.98,0,0,0,0,0,0,0,0,0,78,49,0,0,0,0,0,0,0,0,0,0,0,0,0,0,0,0,0,0,0,0,0,0,0,0,0,0,0,0,0,0,0,0,0,0,0,0,0,0,0,0,0,0,0,0,0,0,0,0,0,0,0,0,0,0,0,13,-0.06375153,0,22.90501,0.8577732,0.01538901,6.791269,1.630203,1,9.129987
99.006,33.55404,0.5821116,25.27511,-2.826889,12.09769,-2.461197,90,92,-0.2389746,1.551062,36.03953,0.1566601,28.98993,0.4348489,0.07851775,1.575788,-0.5779937,-3.848683,-45.54179,-94.68256,-41.4999,101.5058,62.35294,1.1,1132.5,32,31,0,29.01961,30.98039,0.7922074,15.41055,0.13,1.7549,182.6358,343.9,1.077984,5.606937,92,77,4338,0.97,1.579656,1.339844,1.560624,-0.00390625,0,0,0,0,0,0,0,0,0,0,0,0,12.98,0,0,0,0,0,0,0,0,0,78,49,0,0,0,0,0,0,0,0,0,0,0,0,0,0,0,0,0,0,0,0,0,0,0,0,0,0,0,0,0,0,0,0,0,0,0,0,0,0,0,0,0,0,0,0,0,0,0,0,0,0,0,0,0,0,0,13,-0.06375153,0,22.90501,0.8577732,0.01538901,6.791269,1.630203,1,9.129987
100.006,33.55404,2.367047,25.27819,-4.141602,-6.042389,-14.44905,90,92,2.775558E-17,6.282138,36.03953,0.1597417,117.8821,1.768231,-0.8409591,-0.1528981,0.1033695,-5.459168,-46.08976,-95.86951,-44.23156,103.9362,67.84314,1.14,1137,32,31,0,30.58824,32.54902,0.9257944,16.03439,0.17,7.135969,180.7202,343.9,4.383418,5.606746,111,77,4338,0.97,1.378112,1,1.404952,-0.00390625,0,0,0,0,0,0,0,0,0,0,0,0,12.9,0,0,0,0,0,0,0,0,0,75,48,0,0,0,0,0,0,0,0,0,0,0,0,0,0,0,0,0,0,0,0,0,0,0,0,0,0,0,0,0,0,0,0,0,0,0,0,0,0,0,0,0,0,0,0,0,0,0,0,0,0,0,0,0,0,0,13,-0.06375153,0,19.98262,0.8839173,0.01569172,6.720037,1.667701,1,9.129987
101.006,34.17542,2.690638,25.28273,-9.901123,-6.572586,-0.2142487,90,92,0.06185475,7.122154,36.03953,0.1642778,131.561,2.00996,0.2463545,-0.3295012,-0.4219308,-2.274762,-46.24963,-95.7534,-41.68453,103.0726,71.76471,1.16,1140,32,31,0,29.41176,29.41176,0.9633667,16.35875,0.19,8.111502,178.9085,344,4.892065,5.606605,111,77,4338,0.97,1.587464,1.355469,1.637728,-0.00390625,0,0,0,0,0,0,0,0,0,0,0,0,12.9,0,0,0,0,0,0,0,0,0,75,48,0,0,0,0,0,0,0,0,0,0,0,0,0,0,0,0,0,0,0,0,0,0,0,0,0,0,0,0,0,0,0,0,0,0,0,0,0,0,0,0,0,0,0,0,0,0,0,0,0,0,0,0,0,0,0,13,-0.05138057,0,23.01823,0.9182221,0.0161373,6.652672,1.696761,1,9.129987
102.008,34.17542,2.690638,25.28273,1.489166,6.652023,-3.129761,90,92,0.06185475,7.122154,36.03953,0.1642778,131.561,2.00996,-0.05358807,-0.08591244,-0.2234441,-3.832666,-45.98473,-95.69591,-41.85531,102.599,71.76471,1.16,1140,32,31,0,29.41176,29.41176,0.9633667,16.35875,0.19,8.111502,178.9085,344.1,4.892065,5.606605,111,77,4338,0.97,1.587464,1.355469,1.637728,-0.00390625,0,0,0,0,0,0,0,0,0,0,0,0,12.9,0,0,0,0,0,0,0,0,0,75,48,0,0,0,0,0,0,0,0,0,0,0,0,0,0,0,0,0,0,0,0,0,0,0,0,0,0,0,0,0,0,0,0,0,0,0,0,0,0,0,0,0,0,0,0,0,0,0,0,0,0,0,0,0,0,0,13,-0.05138057,0,23.01823,0.9182221,0.0161373,6.652672,1.696761,1,9.129987
103.006,34.17542,2.623514,25.28613,-1.118927,6.99292,-0.5343933,90,92,0.06185475,6.81593,36.03953,0.1676868,128.2789,1.959817,0.2640868,-1.279469,-1.127083,-4.39872,-46.38599,-96.16854,-42.54533,103.2392,61.56863,1.11,1161.5,36,31,0,32.15686,32.94118,0.8856668,15.94885,0.14,7.909142,177.482,344.2,4.770021,5.606472,111,77,4338,0.97,1.443504,1.152344,1.471808,1.179688,0,0,0,0,0,0,0,0,0,0,0,0,12.9,0,0,0,0,0,0,0,0,0,75,48,0,0,0,0,0,0,0,0,0,0,0,0,0,0,0,0,0,0,0,0,0,0,0,0,0,0,0,0,0,0,0,0,0,0,0,0,0,0,0,0,0,0,0,0,0,0,0,0,0,0,0,0,0,0,0,13,-0.05138057,0,20.93081,0.9448104,0.01647218,6.599625,1.731761,1,9.129987
104.006,34.17542,2.623514,25.28613,-5.52829,0.9799805,7.821502,90,92,0.06185475,6.81593,36.03953,0.1676868,128.2789,1.959817,0.6189037,-0.5344197,-0.0009561608,-4.070055,-47.11147,-95.38109,-42.2094,102.8553,61.56863,1.11,1161.5,36,31,0,32.15686,32.94118,0.8856668,15.94885,0.14,7.909142,177.482,344.2,4.770021,5.606472,111,77,4338,0.97,1.443504,1.152344,1.471808,1.179688,0,0,0,0,0,0,0,0,0,0,0,0,12.9,0,0,0,0,0,0,0,0,0,75,48,0,0,0,0,0,0,0,0,0,0,0,0,0,0,0,0,0,0,0,0,0,0,0,0,0,0,0,0,0,0,0,0,0,0,0,0,0,0,0,0,0,0,0,0,0,0,0,0,0,0,0,0,0,0,0,13,-0.05138057,0,20.93081,0.9448104,0.01647218,6.599625,1.731761,1,9.129987
105.006,34.17542,2.42197,25.28992,-2.791977,-8.432159,-16.08701,90,92,2.775558E-17,6.196291,36.03953,0.1714762,118.4243,1.80926,-0.3807493,-0.6036929,-0.7836663,-6.59652,-46.70176,-95.43047,-45.18328,103.3169,75.29412,1.16,1179.5,36,31,0,32.94118,33.33333,0.9476516,16.70657,0.19,7.301546,175.513,344.4,4.403578,5.606236,111,77,4338,0.97,1.403976,1.046875,1.399584,1.058594,0,0,0,0,0,0,0,0,0,0,0,0,12.9,0,0,0,0,0,0,0,0,0,75,48,0,0,0,0,0,0,0,0,0,0,0,0,0,0,0,0,0,0,0,0,0,0,0,0,0,0,0,0,0,0,0,0,0,0,0,0,0,0,0,0,0,0,0,0,0,0,0,0,0,0,0,0,0,0,0,13,-0.05138057,0,20.35765,0.9769996,0.01684442,6.526412,1.760793,1,9.129987
106.006,34.17542,2.42197,25.28992,5.147232,9.262115,-18.8176,90,92,2.775558E-17,6.196291,36.03953,0.1714762,118.4243,1.80926,1.084279,0.5440519,0.03284856,-3.537271,-47.11068,-96.0242,-42.58179,102.3311,75.29412,1.16,1179.5,36,31,0,32.94118,33.33333,0.9476516,16.70657,0.19,7.301546,175.513,344.4,4.403578,5.606236,111,77,4338,0.97,1.403976,1.046875,1.399584,1.058594,0,0,0,0,0,0,0,0,0,0,0,0,12.9,0,0,0,0,0,0,0,0,0,75,48,0,0,0,0,0,0,0,0,0,0,0,0,0,0,0,0,0,0,0,0,0,0,0,0,0,0,0,0,0,0,0,0,0,0,0,0,0,0,0,0,0,0,0,0,0,0,0,0,0,0,0,0,0,0,0,13,-0.05138057,0,20.35765,0.9769996,0.01684442,6.526412,1.760793,1,9.129987
107.006,34.79679,2.968511,25.29378,-4.953979,-1.000488,-13.76938,90,92,0.07990848,7.396998,36.03953,0.1753349,142.5559,2.217536,-0.1830429,0.007453235,-0.5417173,-7.35393,-46.41053,-96.31207,-46.51264,103.9936,72.54902,1.17,1211,36,31,0,32.54902,33.33333,0.9352728,17.30061,0.2,8.94921,174.63,344.4,5.300908,5.606188,111,77,4338,0.97,1.408856,1.058594,1.408856,1.078125,0,0,0,0,0,0,0,0,0,0,0,0,12.9,0,0,0,0,0,0,0,0,0,75,48,0,0,0,0,0,0,0,0,0,0,0,0,0,0,0,0,0,0,0,0,0,0,0,0,0,0,0,0,0,0,0,0,0,0,0,0,0,0,0,0,0,0,0,0,0,0,0,0,0,0,0,0,0,0,0,13,-0.01944228,0,20.42841,1.004037,0.01722347,6.493575,1.790559,1,9.129987
108.006,34.79679,2.968511,25.29378,-3.510178,-15.90224,0.1056213,90,92,0.07990848,7.396998,36.03953,0.1753349,142.5559,2.217536,0.7680203,0.8266659,0.2153428,-8.955576,-44.53878,-93.92301,-44.32759,98.10924,72.54902,1.17,1211,36,31,0,32.54902,33.33333,0.9352728,17.30061,0.2,8.94921,174.63,344.6,5.300908,5.606188,111,77,4338,0.97,1.408856,1.058594,1.408856,1.078125,0,0,0,0,0,0,0,0,0,0,0,0,12.9,0,0,0,0,0,0,0,0,0,75,48,0,0,0,0,0,0,0,0,0,0,0,0,0,0,0,0,0,0,0,0,0,0,0,0,0,0,0,0,0,0,0,0,0,0,0,0,0,0,0,0,0,0,0,0,0,0,0,0,0,0,0,0,0,0,0,13,-0.01944228,0,20.42841,1.004037,0.01722347,6.493575,1.790559,1,9.129987
109.006,35.41816,2.794457,25.29755,-10.85933,0.7723999,4.208817,90,92,0.157332,6.989259,36.03953,0.1791029,131.843,2.087515,-0.2433028,-0.2123578,0.6834958,-9.880283,-46.27904,-95.86489,-49.25755,101.9961,70.58823,1.16,1206.5,36,31,0,32.15686,32.15686,0.8899803,17.089,0.19,8.424487,173.4754,344.6,4.902553,5.606074,111,77,4338,0.97,1.503528,1.222656,1.497672,1.238281,0,0,0,0,0,0,0,0,0,0,0,0,12.9,0,0,0,0,0,0,0,0,0,75,48,0,0,0,0,0,0,0,0,0,0,0,0,0,0,0,0,0,0,0,0,0,0,0,0,0,0,0,0,0,0,0,0,0,0,0,0,0,0,0,0,0,0,0,0,0,0,0,0,0,0,0,0,0,0,0,13,-0.003957576,0,21.80116,1.03244,0.01759361,6.450643,1.81968,1,9.129987
110.006,35.41816,2.794457,25.29755,3.466644,-7.772323,15.85582,90,92,0.157332,6.989259,36.03953,0.1791029,131.843,2.087515,0.2682525,-1.802117,0.5915463,-8.412467,-47.22882,-98.17564,-51.80502,107.035,70.58823,1.16,1206.5,36,31,0,32.15686,32.15686,0.8899803,17.089,0.19,8.424487,173.4754,344.7,4.902553,5.606074,111,77,4338,0.97,1.503528,1.222656,1.497672,1.238281,0,0,0,0,0,0,0,0,0,0,0,0,12.9,0,0,0,0,0,0,0,0,0,75,48,0,0,0,0,0,0,0,0,0,0,0,0,0,0,0,0,0,0,0,0,0,0,0,0,0,0,0,0,0,0,0,0,0,0,0,0,0,0,0,0,0,0,0,0,0,0,0,0,0,0,0,0,0,0,0,13,-0.003957576,0,21.80116,1.03244,0.01759361,6.450643,1.81968,1,9.129987
111.006,35.41816,2.73546,25.30109,-36.94978,-8.001633,-22.90526,90,92,0.07742354,6.791041,36.03953,0.1826444,129.0595,2.043442,0.3305354,0.3681782,1.018446,-8.348839,-44.39026,-96.6781,-47.40444,104.0713,70.19608,1.15,1215.5,36,30,0,32.15686,32.94118,0.8987302,17.06806,0.18,8.246627,172.2957,344.8,4.799048,5.605936,111,77,4338,0.97,1.422032,1.074219,1.4152,1.105469,0,0,0,0,0,0,0,0,0,0,0,0,12.9,0,0,0,0,0,0,0,0,0,75,48,0,0,0,0,0,0,0,0,0,0,0,0,0,0,0,0,0,0,0,0,0,0,0,0,0,0,0,0,0,0,0,0,0,0,0,0,0,0,0,0,0,0,0,0,0,0,0,0,0,0,0,0,0,0,0,13,-0.003957576,0,20.61946,1.060064,0.01794149,6.406775,1.854728,1,9.129987
112.007,35.41816,2.73546,25.30109,-5.035339,4.231415,-6.865646,90,92,0.07742354,6.791041,36.03953,0.1826444,129.0595,2.043442,0.1595253,-0.2715215,0.5681075,-8.704126,-46.83522,-96.75902,-48.5512,104.0139,70.19608,1.15,1215.5,36,30,0,32.15686,32.94118,0.8987302,17.06806,0.18,8.246627,172.2957,345,4.799048,5.605936,111,77,4338,0.97,1.422032,1.074219,1.4152,1.105469,0,0,0,0,0,0,0,0,0,0,0,0,12.9,0,0,0,0,0,0,0,0,0,75,48,0,0,0,0,0,0,0,0,0,0,0,0,0,0,0,0,0,0,0,0,0,0,0,0,0,0,0,0,0,0,0,0,0,0,0,0,0,0,0,0,0,0,0,0,0,0,0,0,0,0,0,0,0,0,0,13,-0.003957576,0,20.61946,1.060064,0.01794149,6.406775,1.854728,1,9.129987
113.008,36.03953,2.822992,25.30553,1.537094,-0.4618378,3.339218,90,92,0.0659985,6.98536,36.03953,0.1870838,130.8929,2.108831,-0.858686,0.4794542,-0.7410642,-10.04586,-46.83658,-96.96028,-51.19999,104.5812,67.84314,1.16,1219.5,36,30,0,32.94118,32.15686,0.9257643,17.27313,0.19,8.510511,171.0139,345,4.867223,5.605787,111,77,4338,0.97,1.446432,1.125,1.439112,1.144531,0,0,0,0,0,0,0,0,0,0,0,0,12.9,0,0,0,0,0,0,0,0,0,75,48,0,0,0,0,0,0,0,0,0,0,0,0,0,0,0,0,0,0,0,0,0,0,0,0,0,0,0,0,0,0,0,0,0,0,0,0,0,0,0,0,0,0,0,0,0,0,0,0,0,0,0,0,0,0,0,13,0.009242125,0,20.97326,1.093968,0.01837758,6.359112,1.883814,1,9.129987
114.007,36.6609,2.690638,25.30903,-4.312149,-5.577881,-4.301956,90,92,0.1458697,6.508422,36.6609,0.1905786,122.6416,2.00996,-1.472765,0.3904859,-1.495131,-13.50018,-51.33294,-97.08269,-58.64638,103.794,72.15686,1.16,1247.5,36,30,0,33.33333,33.33333,0.9099681,17.66973,0.19,8.111502,169.7855,344.9,4.5604,5.605609,111,77,4338,0.97,1.445456,1.117188,1.439112,1.132813,0,0,0,0,0,0,0,0,0,0,0,0,12.9,0,0,0,0,0,0,0,0,0,75,48,0,0,0,0,0,0,0,0,0,0,0,0,0,0,0,0,0,0,0,0,0,0,0,0,0,0,0,0,0,0,0,0,0,0,0,0,0,0,0,0,0,0,0,0,0,0,0,0,0,0,0,0,0,0,0,13,0.07301129,0,20.95911,1.122467,0.01872089,6.313433,1.913544,1,9.129987
115.007,36.6609,2.690638,25.30903,21.75676,-8.56633,0.3191528,90,92,0.1458697,6.508422,36.6609,0.1905786,122.6416,2.00996,2.562761,-1.78943,1.207905,4.407696,-70.28625,-98.96619,-47.83527,106.0449,72.15686,1.16,1247.5,36,30,0,33.33333,33.33333,0.9099681,17.66973,0.19,8.111502,169.7855,344.9,4.5604,5.605609,111,77,4338,0.97,1.445456,1.117188,1.439112,1.132813,0,0,0,0,0,0,0,0,0,0,0,0,12.9,0,0,0,0,0,0,0,0,0,75,48,0,0,0,0,0,0,0,0,0,0,0,0,0,0,0,0,0,0,0,0,0,0,0,0,0,0,0,0,0,0,0,0,0,0,0,0,0,0,0,0,0,0,0,0,0,0,0,0,0,0,0,0,0,0,0,13,0.07301129,0,20.95911,1.122467,0.01872089,6.313433,1.913544,1,9.129987
116.007,37.28227,3.085588,25.31318,0.5445709,-11.21544,-20.92908,90,92,0.1570726,7.334427,37.28227,0.1947261,138.2997,2.304995,-1.036302,1.390427,-1.464668,-1.572566,-48.62847,-98.38484,-49.19638,114.6168,77.25491,1.18,1269.5,36,30,0,32.15686,30.98039,0.9591319,18.29136,0.21,9.302162,168.9669,345.1,5.142642,5.605527,111,77,4338,0.97,1.466928,1.160156,1.464488,1.1875,0,0,0,0,0,0,0,0,0,0,0,0,12.9,0,0,0,0,0,0,0,0,0,75,48,0,0,0,0,0,0,0,0,0,0,0,0,0,0,0,0,0,0,0,0,0,0,0,0,0,0,0,0,0,0,0,0,0,0,0,0,0,0,0,0,0,0,0,0,0,0,0,0,0,0,0,0,0,0,0,13,0.08845157,0,21.27046,1.152451,0.01912831,6.282996,1.942603,1,9.129987
117.007,37.28227,3.085588,25.31318,16.46861,13.03984,11.95897,90,92,0.1570726,7.334427,37.28227,0.1947261,138.2997,2.304995,-0.8229256,0.6305847,-1.33739,-3.431589,-41.91467,-96.42427,-43.97853,110.0465,77.25491,1.18,1269.5,36,30,0,32.15686,30.98039,0.9591319,18.29136,0.21,9.302162,168.9669,345,5.142642,5.605527,111,77,4338,0.97,1.466928,1.160156,1.464488,1.1875,0,0,0,0,0,0,0,0,0,0,0,0,12.9,0,0,0,0,0,0,0,0,0,75,48,0,0,0,0,0,0,0,0,0,0,0,0,0,0,0,0,0,0,0,0,0,0,0,0,0,0,0,0,0,0,0,0,0,0,0,0,0,0,0,0,0,0,0,0,0,0,0,0,0,0,0,0,0,0,0,13,0.08845157,0,21.27046,1.152451,0.01912831,6.282996,1.942603,1,9.129987
118.007,37.28227,3.085588,25.31318,4.596603,9.599976,16.69914,90,92,0.1570726,7.334427,37.28227,0.1947261,138.2997,2.304995,0.2288544,0.2108944,0.1551106,-3.408746,-44.32933,-96.79645,-46.18454,111.7352,77.25491,1.18,1269.5,36,30,0,32.15686,30.98039,0.9591319,18.29136,0.21,9.302162,168.9669,344.9,5.142642,5.605527,111,77,4338,0.97,1.466928,1.160156,1.464488,1.1875,0,0,0,0,0,0,0,0,0,0,0,0,12.9,0,0,0,0,0,0,0,0,0,75,48,0,0,0,0,0,0,0,0,0,0,0,0,0,0,0,0,0,0,0,0,0,0,0,0,0,0,0,0,0,0,0,0,0,0,0,0,0,0,0,0,0,0,0,0,0,0,0,0,0,0,0,0,0,0,0,13,0.08845157,0,21.27046,1.152451,0.01912831,6.282996,1.942603,1,9.129987
119.007,37.28227,2.968935,25.31704,12.00966,12.8239,2.681564,92,92,0.07720137,7.062709,37.28227,0.1985915,133.0712,2.217854,-1.186967,0.4600224,0.1354303,-6.835938,-45.48779,-96.56715,-50.99562,111.4601,67.45098,1.11,1268.5,35,30,0,30.19608,30.19608,0.8470337,17.19273,0.14,8.95049,168.1087,345,4.948222,5.605419,130,77,4338,0.97,1.53232,1.265625,1.52744,1.292969,0,0,0,0,0,0,0,0,0,0,0,0,12.96,0,0,0,0,0,0,0,0,0,79,46,0,0,0,0,0,0,0,0,0,0,0,0,0,0,0,0,0,0,0,0,0,0,0,0,0,0,0,0,0,0,0,0,0,0,0,0,0,0,0,0,0,0,0,0,0,0,0,0,0,0,0,0,0,0,0,13,0.08845157,0,22.21864,1.181328,0.01950801,6.251083,1.995413,1,9.129987
120.007,37.28227,2.968935,25.31704,-5.246292,-0.7619324,-17.34242,92,92,0.07720137,7.062709,37.28227,0.1985915,133.0712,2.217854,1.20324,-0.8654869,-0.9397435,-3.113199,-42.33704,-94.26681,-45.55211,109.4197,67.45098,1.11,1268.5,35,30,0,30.19608,30.19608,0.8470337,17.19273,0.14,8.95049,168.1087,344.9,4.948222,5.605419,130,77,4338,0.97,1.53232,1.265625,1.52744,1.292969,0,0,0,0,0,0,0,0,0,0,0,0,12.96,0,0,0,0,0,0,0,0,0,79,46,0,0,0,0,0,0,0,0,0,0,0,0,0,0,0,0,0,0,0,0,0,0,0,0,0,0,0,0,0,0,0,0,0,0,0,0,0,0,0,0,0,0,0,0,0,0,0,0,0,0,0,0,0,0,0,13,0.08845157,0,22.21864,1.181328,0.01950801,6.251083,1.995413,1,9.129987
121.007,37.90364,2.384873,25.32265,-2.424438,-2.555618,-4.205872,92,92,0.04406311,5.646592,37.90364,0.204207,105.1405,1.781547,0.2556932,0.3558698,-0.2804542,-2.15148,-42.3167,-95.02393,-44.17473,109.935,61.56863,1.07,1274.5,35,30,0,28.23529,28.23529,0.7773884,16.7056,0.1,7.189708,165.3849,344.9,3.909624,5.60488,130,77,4338,0.97,1.564528,1.320313,1.562576,1.347656,0,0,0,0,0,0,0,0,0,0,0,0,12.96,0,0,0,0,0,0,0,0,0,79,46,0,0,0,0,0,0,0,0,0,0,0,0,0,0,0,0,0,0,0,0,0,0,0,0,0,0,0,0,0,0,0,0,0,0,0,0,0,0,0,0,0,0,0,0,0,0,0,0,0,0,0,0,0,0,0,13,0.08489324,0,22.68566,1.234738,0.02005962,6.149799,2.024107,1,9.129987
122.007,37.90364,2.384873,25.32265,-15.08485,-5.346588,9.362747,92,92,0.04406311,5.646592,37.90364,0.204207,105.1405,1.781547,0.9179922,-0.994368,0.7578148,-4.034298,-44.57109,-96.65478,-50.01542,113.549,61.56863,1.07,1274.5,35,30,0,28.23529,28.23529,0.7773884,16.7056,0.1,7.189708,165.3849,344.9,3.909624,5.60488,130,77,4338,0.97,1.564528,1.320313,1.562576,1.347656,0,0,0,0,0,0,0,0,0,0,0,0,12.96,0,0,0,0,0,0,0,0,0,79,46,0,0,0,0,0,0,0,0,0,0,0,0,0,0,0,0,0,0,0,0,0,0,0,0,0,0,0,0,0,0,0,0,0,0,0,0,0,0,0,0,0,0,0,0,0,0,0,0,0,0,0,0,0,0,0,13,0.08489324,0,22.68566,1.234738,0.02005962,6.149799,2.024107,1,9.129987
123.007,37.90364,1.935413,25.32517,6.756546,-1.691025,5.917938,92,92,0.04406311,4.577034,37.90364,0.2067205,85.32544,1.445792,-1.134847,-1.371202,0.5608393,-6.228978,-45.33084,-96.02985,-50.19493,111.8606,60,1.06,1276,35,30,0,27.45098,27.45098,0.6879011,16.56895,0.09,5.834717,163.5166,345,3.172807,5.604453,130,77,4338,0.97,1.591856,1.355469,1.591856,1.394531,0,0,0,0,0,0,0,0,0,0,0,0,12.96,0,0,0,0,0,0,0,0,0,79,46,0,0,0,0,0,0,0,0,0,0,0,0,0,0,0,0,0,0,0,0,0,0,0,0,0,0,0,0,0,0,0,0,0,0,0,0,0,0,0,0,0,0,0,0,0,0,0,0,0,0,0,0,0,0,0,13,0.08489324,0,23.08191,1.264217,0.02030653,6.080328,2.054876,1,9.129987
124.007,37.90364,1.935413,25.32517,13.80504,-5.798035,7.762131,92,92,0.04406311,4.577034,37.90364,0.2067205,85.32544,1.445792,0.2579411,-0.542337,-0.01012628,-4.617072,-45.62629,-96.44099,-50.91073,114.5711,60,1.06,1276,35,30,0,27.45098,27.45098,0.6879011,16.56895,0.09,5.834717,163.5166,345,3.172807,5.604453,130,77,4338,0.97,1.591856,1.355469,1.591856,1.394531,0,0,0,0,0,0,0,0,0,0,0,0,12.96,0,0,0,0,0,0,0,0,0,79,46,0,0,0,0,0,0,0,0,0,0,0,0,0,0,0,0,0,0,0,0,0,0,0,0,0,0,0,0,0,0,0,0,0,0,0,0,0,0,0,0,0,0,0,0,0,0,0,0,0,0,0,0,0,0,0,13,0.08489324,0,23.08191,1.264217,0.02030653,6.080328,2.054876,1,9.129987
125.007,37.90364,1.951081,25.32784,-12.68187,-10.86694,-8.503326,92,92,4.163336E-17,4.596076,37.90364,0.2093895,86.01617,1.457496,-0.2905056,0.5232102,0.6400223,-5.554331,-45.69097,-96.38272,-51.68505,113.0744,57.2549,1.05,1281,35,30,0,25.88235,25.88235,0.7107633,16.47695,0.08,5.88195,161.661,345.1,3.198491,5.604009,130,77,4338,0.97,1.627968,1.421875,1.711904,1.460938,0,0,0,0,0,0,0,0,0,0,0,0,12.96,0,0,0,0,0,0,0,0,0,79,46,0,0,0,0,0,0,0,0,0,0,0,0,0,0,0,0,0,0,0,0,0,0,0,0,0,0,0,0,0,0,0,0,0,0,0,0,0,0,0,0,0,0,0,0,0,0,0,0,0,0,0,0,0,0,0,13,0.08489324,0,23.60554,1.295238,0.02056872,6.011328,2.083942,1,9.129987
126.009,37.90364,1.951081,25.32784,-1.334717,0.5305328,9.645996,92,92,4.163336E-17,4.596076,37.90364,0.2093895,86.01617,1.457496,-0.2626527,-0.2034092,-0.4327256,-4.247811,-46.01335,-95.6365,-51.60963,113.2889,57.2549,1.05,1281,35,30,0,25.88235,25.88235,0.7107633,16.47695,0.08,5.88195,161.661,345.1,3.198491,5.604009,130,77,4338,0.97,1.627968,1.421875,1.711904,1.460938,0,0,0,0,0,0,0,0,0,0,0,0,12.96,0,0,0,0,0,0,0,0,0,79,46,0,0,0,0,0,0,0,0,0,0,0,0,0,0,0,0,0,0,0,0,0,0,0,0,0,0,0,0,0,0,0,0,0,0,0,0,0,0,0,0,0,0,0,0,0,0,0,0,0,0,0,0,0,0,0,13,0.08489324,0,23.60554,1.295238,0.02056872,6.011328,2.083942,1,9.129987
127.008,37.90364,1.922145,25.33033,-4.689529,-2.935699,3.904007,92,92,4.163336E-17,4.536766,37.90364,0.2118828,84.74047,1.43588,0.06175292,0.2141231,0.4091233,-3.088272,-46.63388,-95.45485,-51.08376,113.5187,56.07843,1.05,1278.5,35,30,0,25.4902,25.09804,0.7309301,16.44479,0.08,5.794716,159.938,345.1,3.151055,5.603575,130,77,4338,0.97,1.699216,1.507813,1.699704,1.546875,0,0,0,0,0,0,0,0,0,0,0,0,12.96,0,0,0,0,0,0,0,0,0,79,46,0,0,0,0,0,0,0,0,0,0,0,0,0,0,0,0,0,0,0,0,0,0,0,0,0,0,0,0,0,0,0,0,0,0,0,0,0,0,0,0,0,0,0,0,0,0,0,0,0,0,0,0,0,0,0,13,0.06891154,0,24.63863,1.324781,0.02081364,5.947258,2.118947,1,9.129987
128.008,37.90364,1.926966,25.33335,-5.704453,-3.205276,-4.571457,92,92,4.163336E-17,4.600318,37.90364,0.2149004,84.953,1.439481,-1.248049,0.5321535,1.218394,-5.21715,-46.66072,-96.35273,-55.10516,116.2407,28.62745,0.69,1264,35,30,0,23.52941,21.96078,0.7495989,10.68402,-0.28,5.809249,157.9715,345.3,3.158957,5.603056,130,77,4338,0.97,1.182424,0.5273438,1.296128,0.8320313,0,0,0,0,0,0,0,0,0,0,0,0,12.96,0,0,0,0,0,0,0,0,0,79,46,0,0,0,0,0,0,0,4,0,0,0,0,0,0,0,0,0,0,0,0,0,0,0,0,0,0,0,0,0,0,0,0,0,0,0,0,0,0,0,0,0,0,0,0,0,0,0,0,0,0,0,0,0,0,0,13,0.05342684,0,17.14515,1.360375,0.02111006,5.874133,2.1477,1,9.129987
129.008,37.90364,1.926966,25.33335,5.756424,2.054092,-4.694534,92,92,4.163336E-17,4.600318,37.90364,0.2149004,84.953,1.439481,1.44892,-0.09102413,0.2950386,-1.304825,-47.20219,-95.8176,-49.53275,113.6716,28.62745,0.69,1264,35,30,0,23.52941,21.96078,0.7495989,10.68402,-0.28,5.809249,157.9715,345.3,3.158957,5.603056,130,77,4338,0.97,1.182424,0.5273438,1.296128,0.8320313,0,0,0,0,0,0,0,0,0,0,0,0,12.96,0,0,0,0,0,0,0,0,0,79,46,0,0,0,0,0,0,0,4,0,0,0,0,0,0,0,0,0,0,0,0,0,0,0,0,0,0,0,0,0,0,0,0,0,0,0,0,0,0,0,0,0,0,0,0,0,0,0,0,0,0,0,0,0,0,0,13,0.05342684,0,17.14515,1.360375,0.02111006,5.874133,2.1477,1,9.129987
130.008,37.28227,0.8580106,25.33447,-13.92473,0.7374115,21.65552,92,92,-0.07971314,2.103273,37.90364,0.2160195,38.45705,0.6409509,1.12128,-0.9719649,0.9977754,-2.986858,-51.08988,-94.02977,-50.63435,108.0014,3.921569,1.01,1231,35,30,0,20.78431,23.13725,0.6613243,15.23063,0.04,2.586656,155.4753,345.2,1.430017,5.602336,130,77,4338,0.97,2.351184,2.121094,2.451224,2.242188,0,0,0,0,0,0,0,0,0,0,0,0,12.96,0,0,0,0,0,0,0,0,0,79,46,0,0,0,0,0,0,0,0,0,0,0,0,0,0,0,0,0,0,0,0,0,0,0,0,0,0,0,0,0,0,0,0,0,0,0,0,0,0,0,0,0,0,0,0,0,0,0,0,0,0,0,0,0,0,0,13,0.03748421,0,34.09217,1.389414,0.02121999,5.781311,2.177859,1,9.129987
131.008,37.28227,0.8580106,25.33447,5.279861,-5.776733,-9.058731,92,92,-0.07971314,2.103273,37.90364,0.2160195,38.45705,0.6409509,-2.181681,-0.3207659,-1.1971,-7.581175,-46.64365,-96.23501,-61.96137,118.2859,3.921569,1.01,1231,35,30,0,20.78431,23.13725,0.6613243,15.23063,0.04,2.586656,155.4753,345.2,1.430017,5.602336,130,77,4338,0.97,2.351184,2.121094,2.451224,2.242188,0,0,0,0,0,0,0,0,0,0,0,0,12.96,0,0,0,0,0,0,0,0,0,79,46,0,0,0,0,0,0,0,0,0,0,0,0,0,0,0,0,0,0,0,0,0,0,0,0,0,0,0,0,0,0,0,0,0,0,0,0,0,0,0,0,0,0,0,0,0,0,0,0,0,0,0,0,0,0,0,13,0.03748421,0,34.09217,1.389414,0.02121999,5.781311,2.177859,1,9.129987
132.008,36.6609,0.1255704,25.33464,-6.278458,9.93454,-31.42661,92,92,-0.1572583,0.3059512,37.90364,0.2161883,5.723606,0.09380355,2.210651,-0.4653738,2.785509,-3.891139,-48.20877,-96.64111,-55.6893,115.4571,52.54902,1.02,1238.5,35,30,0,25.4902,26.27451,0.7254723,15.47514,0.05,0.3785587,152.3776,345.3,0.212831,5.601396,130,77,4338,0.97,1.574776,1.324219,1.569896,1.363281,0,0,0,0,0,0,0,0,0,0,0,0,12.96,0,0,0,0,0,0,0,0,0,79,46,0,0,0,0,0,0,0,0,0,0,0,0,0,0,0,0,0,0,0,0,0,0,0,0,0,0,0,0,0,0,0,0,0,0,0,0,0,0,0,0,0,0,0,0,0,0,0,0,0,0,0,0,0,0,0,13,0.008775468,0,22.83425,1.418767,0.02123657,5.666124,2.206608,1,9.129987
133.010,36.6609,0.1255704,25.33464,-5.460617,2.96817,-0.3492737,92,92,-0.1572583,0.3059512,37.90364,0.2161883,5.723606,0.09380355,-1.077758,2.076778,-0.3717065,-1.072789,-46.74337,-96.88167,-54.16407,115.9823,52.54902,1.02,1238.5,35,30,0,25.4902,26.27451,0.7254723,15.47514,0.05,0.3785587,152.3776,345.3,0.212831,5.601396,130,77,4338,0.97,1.574776,1.324219,1.569896,1.363281,0,0,0,0,0,0,0,0,0,0,0,0,12.96,0,0,0,0,0,0,0,0,0,79,46,0,0,0,0,0,0,0,0,0,0,0,0,0,0,0,0,0,0,0,0,0,0,0,0,0,0,0,0,0,0,0,0,0,0,0,0,0,0,0,0,0,0,0,0,0,0,0,0,0,0,0,0,0,0,0,13,0.008775468,0,22.83425,1.418767,0.02123657,5.666124,2.206608,1,9.129987
134.008,36.6609,1.870287,25.33706,-0.6367798,4.293854,-11.24585,92,92,-0.07754522,4.571704,37.90364,0.2186081,85.2493,1.397141,0.6846212,0.4854571,1.236391,-1.665329,-47.05445,-96.33421,-55.42247,117.2055,59.60784,1.09,1234.5,35,30,0,29.01961,29.01961,0.8014919,16.48375,0.12,5.638379,151.0415,345.2,3.169975,5.600979,130,77,4338,0.97,1.496696,1.214844,1.489864,1.230469,0,0,0,0,0,0,0,0,0,0,0,0,12.96,0,0,0,0,0,0,0,0,0,79,46,0,0,0,0,0,0,0,4,0,0,0,0,0,0,0,0,0,0,0,0,0,0,0,0,0,0,0,0,0,0,0,0,0,0,0,0,0,0,0,0,0,0,0,0,0,0,0,0,0,0,0,0,0,0,0,13,-0.007198774,0,21.70209,1.447338,0.02147428,5.616443,2.241604,1,9.129987
135.009,36.6609,1.870287,25.33706,4.781937,4.002899,-3.339096,92,92,-0.07754522,4.571704,37.90364,0.2186081,85.2493,1.397141,-1.012947,-0.2055746,-1.359554,-2.435938,-45.87008,-95.6412,-56.48706,117.7852,59.60784,1.09,1234.5,35,30,0,29.01961,29.01961,0.8014919,16.48375,0.12,5.638379,151.0415,345.2,3.169975,5.600979,130,77,4338,0.97,1.496696,1.214844,1.489864,1.230469,0,0,0,0,0,0,0,0,0,0,0,0,12.96,0,0,0,0,0,0,0,0,0,79,46,0,0,0,0,0,0,0,4,0,0,0,0,0,0,0,0,0,0,0,0,0,0,0,0,0,0,0,0,0,0,0,0,0,0,0,0,0,0,0,0,0,0,0,0,0,0,0,0,0,0,0,0,0,0,0,13,-0.007198774,0,21.70209,1.447338,0.02147428,5.616443,2.241604,1,9.129987
136.008,36.6609,2.325646,25.34072,7.197692,21.08347,15.08792,92,92,4.163336E-17,5.694003,37.90364,0.2222666,106.005,1.737303,-0.703705,1.81981,-0.6766517,-3.37543,-47.0554,-96.08185,-58.73953,119.4357,29.80392,0.75,1232.5,35,30,0,28.23529,28.23529,0.881456,11.32365,-0.22,7.011156,150.0085,345.2,3.941769,5.600644,130,77,4338,0.97,0.910608,-0.6367188,1.00528,0.02734375,0,0,0,0,0,0,0,0,0,0,0,0,12.96,0,0,0,0,0,0,0,0,0,79,46,0,0,0,0,0,0,0,4,0,0,0,0,0,0,0,0,0,0,0,0,0,0,0,0,0,0,0,0,0,0,0,0,0,0,0,0,0,0,0,0,0,0,0,0,0,0,0,0,0,0,0,0,0,0,0,13,-0.02263905,0,13.20382,1.481693,0.02183366,5.578032,2.270696,1,9.129987
137.009,36.6609,2.325646,25.34072,18.00052,-8.905228,2.597931,92,92,4.163336E-17,5.694003,37.90364,0.2222666,106.005,1.737303,0.1432153,0.7662691,-1.442362,-0.9003164,-47.98912,-94.90504,-54.0182,115.3564,29.80392,0.75,1232.5,35,30,0,28.23529,28.23529,0.881456,11.32365,-0.22,7.011156,150.0085,345.2,3.941769,5.600644,130,77,4338,0.97,0.910608,-0.6367188,1.00528,0.02734375,0,0,0,0,0,0,0,0,0,0,0,0,12.96,0,0,0,0,0,0,0,0,0,79,46,0,0,0,0,0,0,0,4,0,0,0,0,0,0,0,0,0,0,0,0,0,0,0,0,0,0,0,0,0,0,0,0,0,0,0,0,0,0,0,0,0,0,0,0,0,0,0,0,0,0,0,0,0,0,0,13,-0.02263905,0,13.20382,1.481693,0.02183366,5.578032,2.270696,1,9.129987
138.009,36.6609,1.266631,25.34236,-0.9135436,0.7779236,-3.723969,92,92,4.163336E-17,3.044348,37.90364,0.2239118,57.73413,0.9461983,-0.8901995,-0.4093632,1.133463,-3.971488,-47.50982,-94.57119,-59.72973,119.0401,48.62745,0.97,1255.5,35,30,0,31.37255,32.15686,0.9617037,14.91856,0,3.818529,148.2521,345.2,2.14683,5.600054,149,77,4338,0.97,0.95892,-0.3046875,1.001376,0,0,0,0,0,0,0,0,0,0,0,0,0,12.96,0,0,0,0,0,0,0,0,0,72,45,0,0,0,0,0,0,0,4,0,0,0,0,0,0,0,0,0,0,0,0,0,0,0,0,0,0,0,0,0,0,0,0,0,0,0,0,0,0,0,0,0,0,0,0,0,0,0,0,0,0,0,0,0,0,0,13,-0.02263905,0,13.90434,1.510345,0.02199527,5.512718,2.308139,1,9.129987
139.009,36.6609,1.266631,25.34236,-5.393646,4.557281,-7.001038,92,92,4.163336E-17,3.044348,37.90364,0.2239118,57.73413,0.9461983,0.545213,0.1750982,-1.629372,-2.205125,-45.95366,-94.89146,-56.31866,118.38,48.62745,0.97,1255.5,35,30,0,31.37255,32.15686,0.9617037,14.91856,0,3.818529,148.2521,345.3,2.14683,5.600054,149,77,4338,0.97,0.95892,-0.3046875,1.001376,0,0,0,0,0,0,0,0,0,0,0,0,0,12.96,0,0,0,0,0,0,0,0,0,72,45,0,0,0,0,0,0,0,4,0,0,0,0,0,0,0,0,0,0,0,0,0,0,0,0,0,0,0,0,0,0,0,0,0,0,0,0,0,0,0,0,0,0,0,0,0,0,0,0,0,0,0,0,0,0,0,13,-0.02263905,0,13.90434,1.510345,0.02199527,5.512718,2.308139,1,9.129987
140.009,37.28227,2.406773,25.34641,-11.04974,0.4584198,6.374938,92,92,0.0619632,5.75945,37.90364,0.2279616,107.8744,1.797907,0.6686206,-0.1096424,0.396896,-1.522446,-46.52542,-94.82603,-55.89372,118.3305,42.35294,0.99,1261,35,30,0,32.94118,34.5098,1.099483,15.29286,0.02,7.255731,147.2903,345.2,4.011285,5.599706,149,77,4338,0.97,0.955016,-0.3632813,0.99308,-0.0546875,0,0,0,0,0,0,0,0,0,0,0,0,12.96,0,0,0,0,0,0,0,0,0,72,45,0,0,0,0,0,0,0,4,0,0,0,0,0,0,0,0,0,0,0,0,0,0,0,0,0,0,0,0,0,0,0,0,0,0,0,0,0,0,0,0,0,0,0,0,0,0,0,0,0,0,0,0,0,0,0,13,-0.01905903,0,13.84773,1.547703,0.02239309,5.476954,2.337193,1,9.129987
141.009,37.28227,2.406773,25.34641,-5.110641,-10.35469,-22.67393,92,92,0.0619632,5.75945,37.90364,0.2279616,107.8744,1.797907,0.2046477,-0.1757384,0.4805657,-3.432762,-46.81034,-95.17827,-57.71777,118.7067,42.35294,0.99,1261,35,30,0,32.94118,34.5098,1.099483,15.29286,0.02,7.255731,147.2903,345.4,4.011285,5.599706,149,77,4338,0.97,0.955016,-0.3632813,0.99308,-0.0546875,0,0,0,0,0,0,0,0,0,0,0,0,12.96,0,0,0,0,0,0,0,0,0,72,45,0,0,0,0,0,0,0,4,0,0,0,0,0,0,0,0,0,0,0,0,0,0,0,0,0,0,0,0,0,0,0,0,0,0,0,0,0,0,0,0,0,0,0,0,0,0,0,0,0,0,0,0,0,0,0,13,-0.01905903,0,13.84773,1.547703,0.02239309,5.476954,2.337193,1,9.129987
142.011,37.28227,2.323075,25.34943,-1.963974,-1.405579,9.793747,92,92,0.0619632,5.576849,37.90364,0.230985,104.123,1.735383,0.3922588,0.5050488,0.2757215,-1.279116,-46.80973,-95.10859,-56.83657,119.9111,37.64706,0.98,1257,37,30,0,32.94118,33.72549,1.213154,15.09037,0.01,7.003405,146.4953,345.4,3.871788,5.599408,149,77,4338,0.97,1.755824,1.574219,1.706048,1.554688,0,0,0,0,0,0,0,0,0,0,0,0,12.96,0,0,0,0,0,0,0,0,0,72,45,0,0,0,0,0,0,0,0,0,0,0,0,0,0,0,0,0,0,0,0,0,0,0,0,0,0,0,0,0,0,0,0,0,0,0,0,0,0,0,0,0,0,0,0,0,0,0,0,0,0,0,0,0,0,0,13,-0.01905903,0,25.45945,1.57674,0.02269008,5.447395,2.371937,1,9.129987
143.009,37.28227,2.323075,25.34943,0.5861359,-0.2478333,3.466202,92,92,0.0619632,5.576849,37.90364,0.230985,104.123,1.735383,-0.5032945,0.1030837,-0.5897035,-0.8364996,-46.39238,-94.94426,-55.96425,119.1973,37.64706,0.98,1257,37,30,0,32.94118,33.72549,1.213154,15.09037,0.01,7.003405,146.4953,345.5,3.871788,5.599408,149,77,4338,0.97,1.755824,1.574219,1.706048,1.554688,0,0,0,0,0,0,0,0,0,0,0,0,12.96,0,0,0,0,0,0,0,0,0,72,45,0,0,0,0,0,0,0,0,0,0,0,0,0,0,0,0,0,0,0,0,0,0,0,0,0,0,0,0,0,0,0,0,0,0,0,0,0,0,0,0,0,0,0,0,0,0,0,0,0,0,0,0,0,0,0,13,-0.01905903,0,25.45945,1.57674,0.02269008,5.447395,2.371937,1,9.129987
144.009,37.90364,1.444587,25.35169,6.687622,8.411209,-6.634888,92,92,0.06600082,3.401623,37.90364,0.2332446,63.68667,1.079135,-0.4883287,-0.2091173,1.143947,-1.419144,-47.49001,-95.60859,-55.65368,118.7302,71.37255,1.12,1281.5,37,30,0,32.94118,32.54902,0.8569167,17.46889,0.15,4.355016,144.6571,345.5,2.368174,5.598721,149,77,4338,0.97,1.385432,1.007813,1.37372,1.015625,0,0,0,0,0,0,0,0,0,0,0,0,12.96,0,0,0,0,0,0,0,0,0,72,45,0,0,0,0,0,0,0,0,0,0,0,0,0,0,0,0,0,0,0,0,0,0,0,0,0,0,0,0,0,0,0,0,0,0,0,0,0,0,0,0,0,0,0,0,0,0,0,0,0,0,0,0,0,0,0,13,-0.005858867,0,20.08876,1.612397,0.02291204,5.379039,2.401323,1,9.129987
145.009,37.90364,2.713628,25.35523,-1.509842,-1.397552,-6.700759,92,92,0.06600082,6.382411,37.90364,0.2367845,119.6341,2.027134,0.6777973,0.1095408,0.9119849,-0.9295028,-47.44135,-94.95058,-56.26802,117.4886,72.15686,1.1,1283,37,30,0,29.01961,27.84314,0.8328403,17.17703,0.13,8.180812,144.2208,345.6,4.448568,5.598525,149,77,4338,0.97,1.373232,0.9921875,1.376648,1.023438,0,0,0,0,0,0,0,0,0,0,0,0,12.96,0,0,0,0,0,0,0,0,0,72,45,0,0,0,0,0,0,0,0,0,0,0,0,0,0,0,0,0,0,0,0,0,0,0,0,0,0,0,0,0,0,0,0,0,0,0,0,0,0,0,0,0,0,0,0,0,0,0,0,0,0,0,0,0,0,0,13,-0.005858867,0,19.91186,1.641819,0.02325977,5.362816,2.431126,1,9.129987
146.009,37.90364,2.713628,25.35523,11.32155,-4.449936,-5.869705,92,92,0.06600082,6.382411,37.90364,0.2367845,119.6341,2.027134,-0.348533,-0.5755917,-0.9091991,-0.9847026,-46.79117,-95.58355,-56.52165,118.3735,72.15686,1.1,1283,37,30,0,29.01961,27.84314,0.8328403,17.17703,0.13,8.180812,144.2208,345.6,4.448568,5.598525,149,77,4338,0.97,1.373232,0.9921875,1.376648,1.023438,0,0,0,0,0,0,0,0,0,0,0,0,12.96,0,0,0,0,0,0,0,0,0,72,45,0,0,0,0,0,0,0,0,0,0,0,0,0,0,0,0,0,0,0,0,0,0,0,0,0,0,0,0,0,0,0,0,0,0,0,0,0,0,0,0,0,0,0,0,0,0,0,0,0,0,0,0,0,0,0,13,-0.005858867,0,19.91186,1.641819,0.02325977,5.362816,2.431126,1,9.129987
147.009,37.90364,2.855383,25.35906,4.032974,0.1938019,9.282074,92,92,4.163336E-17,6.700148,37.90364,0.2406126,125.8836,2.133028,-1.058804,-0.502391,-0.4348572,-4.889915,-46.70351,-94.99819,-62.25319,120.3418,68.62745,1.1,1286,37,30,0,30.19608,29.01961,0.8658073,17.2172,0.13,8.608161,143.87,345.6,4.680952,5.598352,149,77,4338,0.97,1.551352,1.289063,1.539152,1.308594,0,0,0,0,0,0,0,0,0,0,0,0,12.96,0,0,0,0,0,0,0,0,0,72,45,0,0,0,0,0,0,0,0,0,0,0,0,0,0,0,0,0,0,0,0,0,0,0,0,0,0,0,0,0,0,0,0,0,0,0,0,0,0,0,0,0,0,0,0,0,0,0,0,0,0,0,0,0,0,0,13,-0.005858867,0,22.4946,1.672431,0.02363581,5.349771,2.460177,1,9.129987
148.009,37.90364,2.855383,25.35906,6.44577,-5.072937,9.816406,92,92,4.163336E-17,6.700148,37.90364,0.2406126,125.8836,2.133028,-0.4940422,-0.2063148,-1.351479,-3.945936,-46.26421,-94.87779,-58.61911,118.4675,68.62745,1.1,1286,37,30,0,30.19608,29.01961,0.8658073,17.2172,0.13,8.608161,143.87,345.7,4.680952,5.598352,149,77,4338,0.97,1.551352,1.289063,1.539152,1.308594,0,0,0,0,0,0,0,0,0,0,0,0,12.96,0,0,0,0,0,0,0,0,0,72,45,0,0,0,0,0,0,0,0,0,0,0,0,0,0,0,0,0,0,0,0,0,0,0,0,0,0,0,0,0,0,0,0,0,0,0,0,0,0,0,0,0,0,0,0,0,0,0,0,0,0,0,0,0,0,0,13,-0.005858867,0,22.4946,1.672431,0.02363581,5.349771,2.460177,1,9.129987
149.011,37.90364,2.408391,25.36219,5.946198,27.54912,-4.14743,92,92,4.163336E-17,5.688885,37.90364,0.2437441,106.1773,1.799116,-0.8925104,0.8288683,-1.145918,-7.635723,-40.74696,-94.799,-55.2303,113.1624,62.35294,1.08,1277.5,34,30,0,28.23529,27.45098,0.7660365,16.79243,0.11,7.26061,143.2177,345.9,3.948179,5.598063,149,77,4338,0.97,1.569408,1.324219,1.558672,1.347656,0,0,0,0,0,0,0,0,0,0,0,0,12.96,0,0,0,0,0,0,0,0,0,72,45,0,0,0,0,0,0,0,0,0,0,0,0,0,0,0,0,0,0,0,0,0,0,0,0,0,0,0,0,0,0,0,0,0,0,0,0,0,0,0,0,0,0,0,0,0,0,0,0,0,0,0,0,0,0,0,13,0.01008376,0,22.75642,1.701913,0.02394343,5.325518,2.495145,1,9.129987
150.009,37.90364,2.408391,25.36219,-15.01704,-7.737442,-1.505478,92,92,4.163336E-17,5.688885,37.90364,0.2437441,106.1773,1.799116,1.174725,-0.2263843,0.7670314,-2.862236,-42.28835,-94.84435,-53.03467,117.7504,62.35294,1.08,1277.5,34,30,0,28.23529,27.45098,0.7660365,16.79243,0.11,7.26061,143.2177,346,3.948179,5.598063,149,77,4338,0.97,1.569408,1.324219,1.558672,1.347656,0,0,0,0,0,0,0,0,0,0,0,0,12.96,0,0,0,0,0,0,0,0,0,72,45,0,0,0,0,0,0,0,0,0,0,0,0,0,0,0,0,0,0,0,0,0,0,0,0,0,0,0,0,0,0,0,0,0,0,0,0,0,0,0,0,0,0,0,0,0,0,0,0,0,0,0,0,0,0,0,13,0.01008376,0,22.75642,1.701913,0.02394343,5.325518,2.495145,1,9.129987
151.009,37.90364,2.042194,25.3654,-4.072617,-3.854767,6.01857,92,92,4.163336E-17,4.854286,37.90364,0.2469487,90.03302,1.52556,0.6658337,1.088911,-0.2171643,-1.050581,-42.62746,-95.07616,-52.81805,118.3289,58.82353,1.05,1269.5,34,30,0,25.4902,25.09804,0.7127203,16.38219,0.08,6.156631,142.138,346,3.347857,5.597592,149,77,4338,0.97,1.60552,1.382813,1.611864,1.414063,0,0,0,0,0,0,0,0,0,0,0,0,12.96,0,0,0,0,0,0,0,0,0,72,45,0,0,0,0,0,0,0,0,0,0,0,0,0,0,0,0,0,0,0,0,0,0,0,0,0,0,0,0,0,0,0,0,0,0,0,0,0,0,0,0,0,0,0,0,0,0,0,0,0,0,0,0,0,0,0,13,0.0255928,0,23.28004,1.737387,0.02425822,5.285367,2.524241,1,9.129987
152.010,37.90364,2.042194,25.3654,-8.398315,-4.316635,-2.424881,92,92,4.163336E-17,4.854286,37.90364,0.2469487,90.03302,1.52556,-0.8199487,0.1340959,0.1990751,-4.017499,-43.04551,-95.3895,-56.17707,119.2663,58.82353,1.05,1269.5,34,30,0,25.4902,25.09804,0.7127203,16.38219,0.08,6.156631,142.138,345.9,3.347857,5.597592,149,77,4338,0.97,1.60552,1.382813,1.611864,1.414063,0,0,0,0,0,0,0,0,0,0,0,0,12.96,0,0,0,0,0,0,0,0,0,72,45,0,0,0,0,0,0,0,0,0,0,0,0,0,0,0,0,0,0,0,0,0,0,0,0,0,0,0,0,0,0,0,0,0,0,0,0,0,0,0,0,0,0,0,0,0,0,0,0,0,0,0,0,0,0,0,13,0.0255928,0,23.28004,1.737387,0.02425822,5.285367,2.524241,1,9.129987
153.009,37.28227,2.270941,25.36835,-3.6091,0.1843719,14.98972,92,92,-0.07992879,5.417219,37.90364,0.2499041,101.7863,1.696438,0.2767233,0.1812348,0.2762381,-0.9496006,-43.512,-96.18381,-53.45284,117.7507,60.39216,1.07,1265,34,30,0,29.80392,31.37255,0.8453996,16.63506,0.1,6.846237,141.4807,346,3.784899,5.597282,149,77,4338,0.97,1.484008,1.1875,1.477664,1.207031,0,0,0,0,0,0,0,0,0,0,0,0,12.96,0,0,0,0,0,0,0,0,0,72,45,0,0,0,0,0,0,0,0,0,0,0,0,0,0,0,0,0,0,0,0,0,0,0,0,0,0,0,0,0,0,0,0,0,0,0,0,0,0,0,0,0,0,0,0,0,0,0,0,0,0,0,0,0,0,0,13,0.009607047,0,21.51812,1.766348,0.02454854,5.260925,2.554358,1,9.129987
154.010,37.28227,2.270941,25.36835,0.5706177,-0.3123627,5.361298,92,92,-0.07992879,5.417219,37.90364,0.2499041,101.7863,1.696438,0.356283,0.05188088,-0.1008051,-0.8223609,-44.54221,-97.27517,-53.16193,116.3786,60.39216,1.07,1265,34,30,0,29.80392,31.37255,0.8453996,16.63506,0.1,6.846237,141.4807,346.1,3.784899,5.597282,149,77,4338,0.97,1.484008,1.1875,1.477664,1.207031,0,0,0,0,0,0,0,0,0,0,0,0,12.96,0,0,0,0,0,0,0,0,0,72,45,0,0,0,0,0,0,0,0,0,0,0,0,0,0,0,0,0,0,0,0,0,0,0,0,0,0,0,0,0,0,0,0,0,0,0,0,0,0,0,0,0,0,0,0,0,0,0,0,0,0,0,0,0,0,0,13,0.009607047,0,21.51812,1.766348,0.02454854,5.260925,2.554358,1,9.129987
155.010,37.28227,2.552453,25.37178,4.247543,4.874741,15.69022,92,92,-0.07992879,6.029174,37.90364,0.2533325,114.404,1.906733,0.6050113,0.4804139,0.2416865,-0.3598988,-44.75947,-98.0737,-52.83537,117.0435,69.41177,1.16,1277.5,34,30,0,32.94118,33.72549,0.9288094,18.21247,0.19,7.694914,141.015,346.2,4.254085,5.597038,149,77,4338,0.97,1.441064,1.113281,1.425448,1.101563,0,0,0,0,0,0,0,0,0,0,0,0,12.96,0,0,0,0,0,0,0,0,0,72,45,0,0,0,0,0,0,0,0,0,0,0,0,0,0,0,0,0,0,0,0,0,0,0,0,0,0,0,0,0,0,0,0,0,0,0,0,0,0,0,0,0,0,0,0,0,0,0,0,0,0,0,0,0,0,0,13,0.009607047,0,20.89543,1.796493,0.02488531,5.24361,2.583748,1,9.129987
156.010,37.28227,2.552453,25.37178,-6.220612,4.792084,-1.333267,92,92,-0.07992879,6.029174,37.90364,0.2533325,114.404,1.906733,-0.2617073,0.5748497,0.8699539,-2.545985,-45.12294,-98.00957,-55.20199,117.3183,69.41177,1.16,1277.5,34,30,0,32.94118,33.72549,0.9288094,18.21247,0.19,7.694914,141.015,346.2,4.254085,5.597038,149,77,4338,0.97,1.441064,1.113281,1.425448,1.101563,0,0,0,0,0,0,0,0,0,0,0,0,12.96,0,0,0,0,0,0,0,0,0,72,45,0,0,0,0,0,0,0,0,0,0,0,0,0,0,0,0,0,0,0,0,0,0,0,0,0,0,0,0,0,0,0,0,0,0,0,0,0,0,0,0,0,0,0,0,0,0,0,0,0,0,0,0,0,0,0,13,0.009607047,0,20.89543,1.796493,0.02488531,5.24361,2.583748,1,9.129987
157.010,37.28227,2.552453,25.37178,0.03201294,2.684402,15.76306,92,92,-0.07992879,6.029174,37.90364,0.2533325,114.404,1.906733,-0.1931813,-0.2521809,-0.2128624,-2.648331,-44.25936,-98.37086,-53.65702,116.9494,69.41177,1.16,1277.5,34,30,0,32.94118,33.72549,0.9288094,18.21247,0.19,7.694914,141.015,346.3,4.254085,5.597038,149,77,4338,0.97,1.441064,1.113281,1.425448,1.101563,0,0,0,0,0,0,0,0,0,0,0,0,12.96,0,0,0,0,0,0,0,0,0,72,45,0,0,0,0,0,0,0,0,0,0,0,0,0,0,0,0,0,0,0,0,0,0,0,0,0,0,0,0,0,0,0,0,0,0,0,0,0,0,0,0,0,0,0,0,0,0,0,0,0,0,0,0,0,0,0,13,0.009607047,0,20.89543,1.796493,0.02488531,5.24361,2.583748,1,9.129987
158.010,37.90364,3.035244,25.37578,2.010696,-3.433548,-26.61656,90,90,0.0787516,7.042784,37.90364,0.2573329,133.813,2.267388,-0.1862241,-0.5708807,-0.4211755,-1.414989,-45.43873,-97.58308,-50.36646,113.9463,81.56863,1.22,1300.5,36,30,0,33.72549,35.29412,0.9515675,19.49936,0.25,9.150393,140.898,346.4,4.975807,5.596928,169,77,4339,0.97,1.237568,0.6757813,1.219512,0.6601563,0,0,0,0,0,0,0,0,0,0,0,0,12.98,0,0,0,0,0,0,0,0,0,79,44,0,0,0,0,0,0,0,0,0,0,0,0,0,0,0,0,0,0,0,0,0,0,0,0,0,0,0,0,0,0,0,0,0,0,0,0,0,0,0,0,0,0,0,0,0,0,0,0,0,0,0,0,0,0,0,13,0.02535737,0,17.94474,1.826377,0.02527828,5.23926,2.636178,1,9.129987
159.010,38.52501,3.779324,25.38468,6.1427,5.226654,-9.767044,90,90,0.1227896,8.555491,38.52501,0.2662336,163.9295,2.82323,0.2863828,0.09031191,-0.2391871,-2.873181,-46.70797,-98.3886,-52.99874,113.3271,84.70588,1.24,1333,36,30,0,34.90196,34.11765,0.9968716,20.18288,0.27,11.39358,141.5614,346.5,6.095678,5.597088,169,77,4339,0.97,1.458144,1.148438,1.43716,1.089844,0,0,0,0,0,0,0,0,0,0,0,0,12.98,0,0,0,0,0,0,0,0,0,79,44,0,0,0,0,0,0,0,0,0,0,0,0,0,0,0,0,0,0,0,0,0,0,0,0,0,0,0,0,0,0,0,0,0,0,0,0,0,0,0,0,0,0,0,0,0,0,0,0,0,0,0,0,0,0,0,13,0.02177232,0,21.14309,1.880693,0.02615262,5.263929,2.665139,1,9.129987
160.012,38.52501,3.779324,25.38468,-2.19455,9.088379,11.89973,90,90,0.1227896,8.555491,38.52501,0.2662336,163.9295,2.82323,-0.4007545,-0.1492893,-0.3780269,-4.726976,-46.18426,-99.7728,-55.55622,114.5311,84.70588,1.24,1333,36,30,0,34.90196,34.11765,0.9968716,20.18288,0.27,11.39358,141.5614,346.6,6.095678,5.597088,169,77,4339,0.97,1.458144,1.148438,1.43716,1.089844,0,0,0,0,0,0,0,0,0,0,0,0,12.98,0,0,0,0,0,0,0,0,0,79,44,0,0,0,0,0,0,0,0,0,0,0,0,0,0,0,0,0,0,0,0,0,0,0,0,0,0,0,0,0,0,0,0,0,0,0,0,0,0,0,0,0,0,0,0,0,0,0,0,0,0,0,0,0,0,0,13,0.02177232,0,21.14309,1.880693,0.02615262,5.263929,2.665139,1,9.129987
161.010,39.14639,3.716424,25.38952,8.961517,6.600479,1.643646,90,90,0.1237543,8.435248,39.14639,0.2710744,158.6424,2.776242,0.2285537,0.5499384,-0.4504225,-3.554856,-45.97437,-98.90475,-51.42744,112.5873,72.15686,1.16,1329.5,36,30,0,34.5098,35.29412,0.9209587,18.83119,0.19,11.20395,141.8359,346.6,5.899081,5.597143,169,77,4339,0.97,1.339072,0.9101563,1.327848,0.9140625,0,0,0,0,0,0,0,0,0,0,0,0,12.98,0,0,0,0,0,0,0,0,0,79,44,0,0,0,0,0,0,0,0,0,0,0,0,0,0,0,0,0,0,0,0,0,0,0,0,0,0,0,0,0,0,0,0,0,0,0,0,0,0,0,0,0,0,0,0,0,0,0,0,0,0,0,0,0,0,0,13,0.03771559,0,19.41654,1.911183,0.02662814,5.274136,2.69521,1,9.129987
162.012,39.14639,3.716424,25.38952,-6.196991,-9.301941,-13.85828,90,90,0.1237543,8.435248,39.14639,0.2710744,158.6424,2.776242,-0.7271566,-0.7494431,-0.07204966,-3.805243,-46.06117,-98.93342,-50.47867,111.4515,72.15686,1.16,1329.5,36,30,0,34.5098,35.29412,0.9209587,18.83119,0.19,11.20395,141.8359,346.9,5.899081,5.597143,169,77,4339,0.97,1.339072,0.9101563,1.327848,0.9140625,0,0,0,0,0,0,0,0,0,0,0,0,12.98,0,0,0,0,0,0,0,0,0,79,44,0,0,0,0,0,0,0,0,0,0,0,0,0,0,0,0,0,0,0,0,0,0,0,0,0,0,0,0,0,0,0,0,0,0,0,0,0,0,0,0,0,0,0,0,0,0,0,0,0,0,0,0,0,0,0,13,0.03771559,0,19.41654,1.911183,0.02662814,5.274136,2.69521,1,9.129987
163.010,39.76776,3.284113,25.39392,-3.776627,-3.779266,-4.646805,90,90,0.1570677,7.286855,39.76776,0.2754771,137.998,2.453297,0.03977589,-0.9234473,0.3709154,-3.766544,-47.14938,-100.1074,-49.55647,110.3288,80.78432,1.2,1360,36,30,0,34.90196,34.90196,0.9578791,19.92744,0.23,9.900659,141.7717,346.9,5.131422,5.597055,169,77,4339,0.97,1.375184,0.9921875,1.362008,0.9882813,0,0,0,0,0,0,0,0,0,0,0,0,12.98,0,0,0,0,0,0,0,0,0,79,44,0,0,0,0,0,0,0,0,0,0,0,0,0,0,0,0,0,0,0,0,0,0,0,0,0,0,0,0,0,0,0,0,0,0,0,0,0,0,0,0,0,0,0,0,0,0,0,0,0,0,0,0,0,0,0,13,0.0399857,0,19.94017,1.943104,0.02706062,5.271747,2.724264,1,9.129987
164.010,39.76776,3.284113,25.39392,-4.639618,2.404831,1.977249,90,90,0.1570677,7.286855,39.76776,0.2754771,137.998,2.453297,0.3294854,0.3778058,-0.5498505,-1.870338,-46.32045,-98.60229,-45.32975,108.6742,80.78432,1.2,1360,36,30,0,34.90196,34.90196,0.9578791,19.92744,0.23,9.900659,141.7717,347,5.131422,5.597055,169,77,4339,0.97,1.375184,0.9921875,1.362008,0.9882813,0,0,0,0,0,0,0,0,0,0,0,0,12.98,0,0,0,0,0,0,0,0,0,79,44,0,0,0,0,0,0,0,0,0,0,0,0,0,0,0,0,0,0,0,0,0,0,0,0,0,0,0,0,0,0,0,0,0,0,0,0,0,0,0,0,0,0,0,0,0,0,0,0,0,0,0,0,0,0,0,13,0.0399857,0,19.94017,1.943104,0.02706062,5.271747,2.724264,1,9.129987
165.010,40.38913,3.880124,25.39898,0.742569,-1.890808,-0.7730713,90,90,0.1569601,9.922581,40.38913,0.2805356,160.534,2.89853,-0.4615543,-0.02254703,-0.1185764,-5.804579,-46.33392,-99.25547,-49.49458,109.3585,88.62745,1.2,1180,35,30,0,37.2549,37.2549,0.9881852,17.28998,0.23,11.69746,142.0718,347,5.969417,5.597125,169,77,4339,0.97,1.27124,0.7539063,1.260992,0.7578125,0,0,0,0,0,0,0,0,0,0,0,0,12.98,0,0,0,0,0,0,0,0,0,79,44,0,0,0,0,0,0,0,0,0,0,0,0,0,0,0,0,0,0,0,0,0,0,0,0,0,0,0,0,0,0,0,0,0,0,0,0,0,0,0,0,0,0,0,0,0,0,0,0,0,0,0,0,0,0,0,13,0.05590745,0,18.43298,1.974605,0.02755753,5.282907,2.759237,1,9.129987
166.010,40.38913,3.880124,25.39898,-0.6690521,6.828979,-2.192825,90,90,0.1569601,9.922581,40.38913,0.2805356,160.534,2.89853,-0.9001655,0.4298029,-0.4854578,-6.390905,-46.45645,-99.12334,-48.09242,108.5822,88.62745,1.2,1180,35,30,0,37.2549,37.2549,0.9881852,17.28998,0.23,11.69746,142.0718,347,5.969417,5.597125,169,77,4339,0.97,1.27124,0.7539063,1.260992,0.7578125,0,0,0,0,0,0,0,0,0,0,0,0,12.98,0,0,0,0,0,0,0,0,0,79,44,0,0,0,0,0,0,0,0,0,0,0,0,0,0,0,0,0,0,0,0,0,0,0,0,0,0,0,0,0,0,0,0,0,0,0,0,0,0,0,0,0,0,0,0,0,0,0,0,0,0,0,0,0,0,0,13,0.05590745,0,18.43298,1.974605,0.02755753,5.282907,2.759237,1,9.129987
167.010,41.0105,4.018183,25.40527,-3.00145,0.3198547,11.7827,90,90,0.1458592,10.62221,41.0105,0.2868259,163.727,3.001662,-0.1786053,0.02740547,-0.3831204,-4.325135,-47.67923,-99.2835,-47.34898,107.1153,83.13725,1.21,1141.5,35,30,0,35.29412,36.07843,1.071596,16.91997,0.24,12.11367,142.484,347.2,6.088151,5.597236,169,77,4339,0.97,1.301008,0.8359375,1.29808,0.8515625,0,0,0,0,0,0,0,0,0,0,0,0,12.98,0,0,0,0,0,0,0,0,0,79,44,0,0,0,0,0,0,0,0,0,0,0,0,0,0,0,0,0,0,0,0,0,0,0,0,0,0,0,0,0,0,0,0,0,0,0,0,0,0,0,0,0,0,0,0,0,0,0,0,0,0,0,0,0,0,0,13,0.06915754,0,18.86462,2.013039,0.02817543,5.298234,2.788283,1,9.129987
168.010,41.0105,4.018183,25.40527,5.36499,3.472351,-1.507553,90,90,0.1458592,10.62221,41.0105,0.2868259,163.727,3.001662,0.4039213,0.6083599,1.633746,-3.078741,-48.60849,-98.45097,-44.73013,105.3896,83.13725,1.21,1141.5,35,30,0,35.29412,36.07843,1.071596,16.91997,0.24,12.11367,142.484,347.3,6.088151,5.597236,169,77,4339,0.97,1.301008,0.8359375,1.29808,0.8515625,0,0,0,0,0,0,0,0,0,0,0,0,12.98,0,0,0,0,0,0,0,0,0,79,44,0,0,0,0,0,0,0,0,0,0,0,0,0,0,0,0,0,0,0,0,0,0,0,0,0,0,0,0,0,0,0,0,0,0,0,0,0,0,0,0,0,0,0,0,0,0,0,0,0,0,0,0,0,0,0,13,0.06915754,0,18.86462,2.013039,0.02817543,5.298234,2.788283,1,9.129987
169.012,41.0105,3.628134,25.41,2.417526,-5.946732,1.150833,90,90,0.06625046,9.540951,41.0105,0.2915548,147.8339,2.710288,0.1785837,0.186984,-0.2026451,-4.241826,-47.70018,-98.3022,-45.03379,105.8776,81.96078,1.2,1147.5,35,30,0,29.80392,30.98039,1.06626,16.86834,0.23,10.93779,142.5806,347.4,5.497169,5.597223,169,77,4339,0.97,1.523048,1.257813,1.503528,1.269531,0,0,0,0,0,0,0,0,0,0,0,0,12.98,0,0,0,0,0,0,0,0,0,79,44,0,0,0,0,0,0,0,0,0,0,0,0,0,0,0,0,0,0,0,0,0,0,0,0,0,0,0,0,0,0,0,0,0,0,0,0,0,0,0,0,0,0,0,0,0,0,0,0,0,0,0,0,0,0,0,13,0.06915754,0,22.0842,2.044842,0.02863996,5.301826,2.81808,1,9.129987
170.011,41.63187,3.077817,25.41415,-7.945313,2.905258,6.533905,90,90,0.07710691,8.150598,41.63187,0.2956989,123.5386,2.29919,0.3114779,0.08167306,-0.2429875,-5.324858,-47.22078,-97.97003,-45.70716,106.1429,62.35294,1.11,1139.5,35,30,0,30.19608,30.19608,0.9127158,15.49443,0.14,9.278736,142.2748,347.4,4.593753,5.597024,169,77,4339,0.97,1.439112,1.109375,1.438136,1.128906,0,0,0,0,0,0,0,0,0,0,0,0,12.98,0,0,0,0,0,0,0,0,0,79,44,0,0,0,0,0,0,0,0,0,0,0,0,0,0,0,0,0,0,0,0,0,0,0,0,0,0,0,0,0,0,0,0,0,0,0,0,0,0,0,0,0,0,0,0,0,0,0,0,0,0,0,0,0,0,0,13,0.08457892,0,20.86712,2.078365,0.02904705,5.290454,2.84711,1,9.129987
171.011,41.63187,3.077817,25.41415,-0.2128601,1.281952,-13.53001,90,90,0.07710691,8.150598,41.63187,0.2956989,123.5386,2.29919,-0.8115909,0.1626633,0.001431018,-7.124073,-47.48036,-98.31836,-48.66496,107.3643,62.35294,1.11,1139.5,35,30,0,30.19608,30.19608,0.9127158,15.49443,0.14,9.278736,142.2748,347.4,4.593753,5.597024,169,77,4339,0.97,1.439112,1.109375,1.438136,1.128906,0,0,0,0,0,0,0,0,0,0,0,0,12.98,0,0,0,0,0,0,0,0,0,79,44,0,0,0,0,0,0,0,0,0,0,0,0,0,0,0,0,0,0,0,0,0,0,0,0,0,0,0,0,0,0,0,0,0,0,0,0,0,0,0,0,0,0,0,0,0,0,0,0,0,0,0,0,0,0,0,13,0.08457892,0,20.86712,2.078365,0.02904705,5.290454,2.84711,1,9.129987
172.011,41.63187,2.301347,25.41713,12.44572,7.470001,-0.4721069,90,90,0.07710691,6.078366,41.63187,0.2986826,92.37232,1.719151,0.9610547,0.3193571,0.2997277,-4.549766,-48.54699,-96.88368,-44.29084,104.7656,63.13726,1.13,1142.5,34,30,0,31.37255,30.98039,0.9033631,15.81514,0.16,6.937901,141.4957,347.5,3.434843,5.596603,169,77,4339,0.97,1.513288,1.234375,1.503528,1.257813,0,0,0,0,0,0,0,0,0,0,0,0,12.98,0,0,0,0,0,0,0,0,0,79,44,0,0,0,0,0,0,0,0,0,0,0,0,0,0,0,0,0,0,0,0,0,0,0,0,0,0,0,0,0,0,0,0,0,0,0,0,0,0,0,0,0,0,0,0,0,0,0,0,0,0,0,0,0,0,0,13,0.1005647,0,21.94268,2.110896,0.02934014,5.261484,2.88249,1,9.129987
173.011,41.63187,2.301347,25.41713,1.341812,0.273468,3.447693,90,90,0.07710691,6.078366,41.63187,0.2986826,92.37232,1.719151,0.3980162,0.0431283,0.03507205,-6.164745,-48.42883,-98.11551,-47.78611,107.1041,63.13726,1.13,1142.5,34,30,0,31.37255,30.98039,0.9033631,15.81514,0.16,6.937901,141.4957,347.6,3.434843,5.596603,169,77,4339,0.97,1.513288,1.234375,1.503528,1.257813,0,0,0,0,0,0,0,0,0,0,0,0,12.98,0,0,0,0,0,0,0,0,0,79,44,0,0,0,0,0,0,0,0,0,0,0,0,0,0,0,0,0,0,0,0,0,0,0,0,0,0,0,0,0,0,0,0,0,0,0,0,0,0,0,0,0,0,0,0,0,0,0,0,0,0,0,0,0,0,0,13,0.1005647,0,21.94268,2.110896,0.02934014,5.261484,2.88249,1,9.129987
174.011,41.63187,2.396821,25.42089,4.654785,0.7644958,-1.088943,90,90,6.938894E-17,6.305699,41.63187,0.3024389,96.20452,1.790473,-0.08186802,0.3743306,0.5775154,-6.633403,-48.51596,-98.47346,-48.56594,107.5609,64.70588,1.14,1147,34,30,0,30.58824,30.58824,0.9237059,16.07009,0.17,7.22573,140.6741,347.7,3.577343,5.596137,169,77,4339,0.97,1.56648,1.320313,1.56404,1.355469,0,0,0,0,0,0,0,0,0,0,0,0,12.98,0,0,0,0,0,0,0,0,0,79,44,0,0,0,0,0,0,0,0,0,0,0,0,0,0,0,0,0,0,0,0,0,0,0,0,0,0,0,0,0,0,0,0,0,0,0,0,0,0,0,0,0,0,0,0,0,0,0,0,0,0,0,0,0,0,0,13,0.1005647,0,22.71396,2.149925,0.02970912,5.230935,2.9112,1,9.129987
175.011,41.63187,2.396821,25.42089,-2.572769,2.442261,-6.295563,90,90,6.938894E-17,6.305699,41.63187,0.3024389,96.20452,1.790473,0.374929,0.6275817,0.3265277,-6.85294,-48.65779,-97.39345,-48.17548,106.8405,64.70588,1.14,1147,34,30,0,30.58824,30.58824,0.9237059,16.07009,0.17,7.22573,140.6741,347.8,3.577343,5.596137,169,77,4339,0.97,1.56648,1.320313,1.56404,1.355469,0,0,0,0,0,0,0,0,0,0,0,0,12.98,0,0,0,0,0,0,0,0,0,79,44,0,0,0,0,0,0,0,0,0,0,0,0,0,0,0,0,0,0,0,0,0,0,0,0,0,0,0,0,0,0,0,0,0,0,0,0,0,0,0,0,0,0,0,0,0,0,0,0,0,0,0,0,0,0,0,13,0.1005647,0,22.71396,2.149925,0.02970912,5.230935,2.9112,1,9.129987
176.013,41.0105,2.355994,25.42395,10.97035,6.341766,-8.903046,90,90,-0.07985612,6.258307,41.63187,0.3055011,95.99859,1.759974,0.586255,0.565891,-0.2131491,-6.392681,-48.75911,-97.00395,-47.40077,106.8389,59.21569,1.12,1136,34,30,0,27.45098,27.05882,0.8824841,15.63675,0.15,7.102646,140.0218,347.8,3.569685,5.595755,188,77,4339,0.97,1.625528,1.40625,1.62504,1.4375,0,0,0,0,0,0,0,0,0,0,0,0,12.96,0,0,0,0,0,0,0,0,0,79,44,0,0,0,0,0,0,0,0,0,0,0,0,0,0,0,0,0,0,0,0,0,0,0,0,0,0,0,0,0,0,0,0,0,0,0,0,0,0,0,0,0,0,0,0,0,0,0,0,0,0,0,0,0,0,0,13,0.06884313,0,23.57016,2.181811,0.03000993,5.206677,2.948691,1,9.129987
177.011,41.0105,2.355994,25.42395,-4.099319,-2.7155,-5.685104,90,90,-0.07985612,6.258307,41.63187,0.3055011,95.99859,1.759974,-0.2357573,-0.3714089,-0.1404403,-5.505509,-48.33918,-97.06479,-46.57909,106.8354,59.21569,1.12,1136,34,30,0,27.45098,27.05882,0.8824841,15.63675,0.15,7.102646,140.0218,347.9,3.569685,5.595755,188,77,4339,0.97,1.625528,1.40625,1.62504,1.4375,0,0,0,0,0,0,0,0,0,0,0,0,12.96,0,0,0,0,0,0,0,0,0,79,44,0,0,0,0,0,0,0,0,0,0,0,0,0,0,0,0,0,0,0,0,0,0,0,0,0,0,0,0,0,0,0,0,0,0,0,0,0,0,0,0,0,0,0,0,0,0,0,0,0,0,0,0,0,0,0,13,0.06884313,0,23.57016,2.181811,0.03000993,5.206677,2.948691,1,9.129987
178.011,41.0105,1.958507,25.42725,2.371933,3.10173,-7.783127,90,90,-0.07985612,5.213924,41.63187,0.3088002,79.80239,1.463044,-0.6005009,-1.135739,-0.6625146,-8.11392,-47.32038,-98.18724,-50.74471,109.1073,59.60784,1.08,1133.5,34,30,0,26.66667,26.66667,0.8093755,15.04511,0.11,5.904339,138.9143,347.9,2.967433,5.595119,188,77,4339,0.97,1.605032,1.378906,1.607472,1.414063,0,0,0,0,0,0,0,0,0,0,0,0,12.96,0,0,0,0,0,0,0,0,0,79,44,0,0,0,0,0,0,0,0,0,0,0,0,0,0,0,0,0,0,0,0,0,0,0,0,0,0,0,0,0,0,0,0,0,0,0,0,0,0,0,0,0,0,0,0,0,0,0,0,0,0,0,0,0,0,0,13,0.06003554,0,23.27296,2.222955,0.03033401,5.165496,2.977804,1,9.129987
179.011,41.0105,1.958507,25.42725,9.077805,3.198074,8.98848,90,90,-0.07985612,5.213924,41.63187,0.3088002,79.80239,1.463044,0.01490772,0.2510154,-0.7192251,-6.352595,-47.68599,-98.32346,-49.07998,108.62,59.60784,1.08,1133.5,34,30,0,26.66667,26.66667,0.8093755,15.04511,0.11,5.904339,138.9143,348,2.967433,5.595119,188,77,4339,0.97,1.605032,1.378906,1.607472,1.414063,0,0,0,0,0,0,0,0,0,0,0,0,12.96,0,0,0,0,0,0,0,0,0,79,44,0,0,0,0,0,0,0,0,0,0,0,0,0,0,0,0,0,0,0,0,0,0,0,0,0,0,0,0,0,0,0,0,0,0,0,0,0,0,0,0,0,0,0,0,0,0,0,0,0,0,0,0,0,0,0,13,0.06003554,0,23.27296,2.222955,0.03033401,5.165496,2.977804,1,9.129987
180.011,41.0105,2.088371,25.42997,-3.264191,-6.524872,-3.74501,90,90,6.938894E-17,5.544969,41.63187,0.3115201,85.09386,1.560054,-0.4762438,-0.5955145,-0.7386752,-5.838944,-47.99164,-98.99449,-50.46545,109.4466,63.13726,1.09,1136.5,35,30,0,28.23529,27.84314,0.859256,15.2246,0.12,6.295839,138.1517,348.2,3.164196,5.594659,188,77,4339,0.97,1.614792,1.394531,1.60552,1.414063,0,0,0,0,0,0,0,0,0,0,0,0,12.96,0,0,0,0,0,0,0,0,0,79,44,0,0,0,0,0,0,0,0,0,0,0,0,0,0,0,0,0,0,0,0,0,0,0,0,0,0,0,0,0,0,0,0,0,0,0,0,0,0,0,0,0,0,0,0,0,0,0,0,0,0,0,0,0,0,0,13,0.04409228,0,23.41448,2.254913,0.03060119,5.137139,3.012809,1,9.129987
181.011,41.0105,2.088371,25.42997,7.719178,-3.085449,5.734634,90,90,6.938894E-17,5.544969,41.63187,0.3115201,85.09386,1.560054,0.07667182,-0.1220095,-0.3290927,-5.357979,-48.26382,-98.28479,-49.00895,108.2656,63.13726,1.09,1136.5,35,30,0,28.23529,27.84314,0.859256,15.2246,0.12,6.295839,138.1517,348.3,3.164196,5.594659,188,77,4339,0.97,1.614792,1.394531,1.60552,1.414063,0,0,0,0,0,0,0,0,0,0,0,0,12.96,0,0,0,0,0,0,0,0,0,79,44,0,0,0,0,0,0,0,0,0,0,0,0,0,0,0,0,0,0,0,0,0,0,0,0,0,0,0,0,0,0,0,0,0,0,0,0,0,0,0,0,0,0,0,0,0,0,0,0,0,0,0,0,0,0,0,13,0.04409228,0,23.41448,2.254913,0.03060119,5.137139,3.012809,1,9.129987
182.011,41.0105,2.082666,25.43323,-5.469635,5.999298,4.258987,90,90,6.938894E-17,5.596299,41.63187,0.314781,84.86142,1.555793,1.017007,0.7115318,-0.477586,-2.75872,-47.85608,-98.40479,-45.19041,107.4949,58.82353,1.1,1123,35,30,0,23.92157,23.13725,0.8094985,15.13251,0.13,6.278641,137.258,348.4,3.155552,5.594104,188,77,4339,0.97,1.673352,1.460938,1.6836,1.523438,0,0,0,0,0,0,0,0,0,0,0,0,12.96,0,0,0,0,0,0,0,0,0,79,44,0,0,0,0,0,0,0,0,0,0,0,0,0,0,0,0,0,0,0,0,0,0,0,0,0,0,0,0,0,0,0,0,0,0,0,0,0,0,0,0,0,0,0,0,0,0,0,0,0,0,0,0,0,0,0,13,0.02862201,0,24.2636,2.293352,0.03092151,5.103908,3.041609,1,9.129987
183.012,41.0105,2.082666,25.43323,-6.119659,-3.978455,-5.006317,90,90,6.938894E-17,5.596299,41.63187,0.314781,84.86142,1.555793,-1.074759,0.332472,0.5841535,-4.589394,-48.7716,-99.03028,-48.26221,107.335,58.82353,1.1,1123,35,30,0,23.92157,23.13725,0.8094985,15.13251,0.13,6.278641,137.258,348.5,3.155552,5.594104,188,77,4339,0.97,1.673352,1.460938,1.6836,1.523438,0,0,0,0,0,0,0,0,0,0,0,0,12.96,0,0,0,0,0,0,0,0,0,79,44,0,0,0,0,0,0,0,0,0,0,0,0,0,0,0,0,0,0,0,0,0,0,0,0,0,0,0,0,0,0,0,0,0,0,0,0,0,0,0,0,0,0,0,0,0,0,0,0,0,0,0,0,0,0,0,13,0.02862201,0,24.2636,2.293352,0.03092151,5.103908,3.041609,1,9.129987
184.012,40.38913,2.165916,25.43604,-0.6713715,6.946793,-3.024292,90,90,-0.07938821,5.807072,41.63187,0.3175941,89.61134,1.617983,0.5505372,0.4908035,1.196362,-3.336815,-49.95716,-97.77605,-45.54088,105.7298,73.33334,1.09,1125.5,35,30,0,26.66667,27.05882,0.9144553,15.02832,0.12,6.529618,136.6031,348.6,3.332177,5.593678,188,77,4339,0.97,1.589416,1.355469,1.582096,1.378906,0,0,0,0,0,0,0,0,0,0,0,0,12.96,0,0,0,0,0,0,0,0,0,79,44,0,0,0,0,0,0,0,0,0,0,0,0,0,0,0,0,0,0,0,0,0,0,0,0,0,0,0,0,0,0,0,0,0,0,0,0,0,0,0,0,0,0,0,0,0,0,0,0,0,0,0,0,0,0,0,13,-0.003177393,0,23.04653,2.32494,0.03119785,5.079556,3.071771,1,9.129987
185.012,40.38913,2.165916,25.43604,-3.340103,4.09375,0.5617218,90,90,-0.07938821,5.807072,41.63187,0.3175941,89.61134,1.617983,0.5041595,-0.4029595,0.2670936,-4.365029,-49.59474,-98.40862,-46.97216,106.4867,73.33334,1.09,1125.5,35,30,0,26.66667,27.05882,0.9144553,15.02832,0.12,6.529618,136.6031,348.6,3.332177,5.593678,188,77,4339,0.97,1.589416,1.355469,1.582096,1.378906,0,0,0,0,0,0,0,0,0,0,0,0,12.96,0,0,0,0,0,0,0,0,0,79,44,0,0,0,0,0,0,0,0,0,0,0,0,0,0,0,0,0,0,0,0,0,0,0,0,0,0,0,0,0,0,0,0,0,0,0,0,0,0,0,0,0,0,0,0,0,0,0,0,0,0,0,0,0,0,0,13,-0.003177393,0,23.04653,2.32494,0.03119785,5.079556,3.071771,1,9.129987
186.012,40.38913,2.610027,25.43956,-2.639282,7.702393,1.378845,90,90,-0.07938821,7.019613,41.63187,0.3211102,107.9857,1.949742,-0.161955,-0.2377049,-0.1737726,-5.301201,-49.58842,-99.36664,-48.67118,107.146,62.35294,1.12,1122,35,30,0,28.23529,28.23529,0.8819616,15.39392,0.15,7.868484,136.2203,348.7,4.015423,5.593381,188,77,4339,0.97,1.629432,1.410156,1.619184,1.4375,0,0,0,0,0,0,0,0,0,0,0,0,12.96,0,0,0,0,0,0,0,0,0,79,44,0,0,0,0,0,0,0,0,0,0,0,0,0,0,0,0,0,0,0,0,0,0,0,0,0,0,0,0,0,0,0,0,0,0,0,0,0,0,0,0,0,0,0,0,0,0,0,0,0,0,0,0,0,0,0,13,-0.01642749,0,23.62676,2.357286,0.03154324,5.06532,3.100872,1,9.129987
187.012,40.38913,2.610027,25.43956,-14.31784,-1.985016,22.47505,90,90,-0.07938821,7.019613,41.63187,0.3211102,107.9857,1.949742,0.1245809,0.2184574,-1.073829,-5.836975,-49.39669,-97.91039,-47.97972,106.5478,62.35294,1.12,1122,35,30,0,28.23529,28.23529,0.8819616,15.39392,0.15,7.868484,136.2203,348.8,4.015423,5.593381,188,77,4339,0.97,1.629432,1.410156,1.619184,1.4375,0,0,0,0,0,0,0,0,0,0,0,0,12.96,0,0,0,0,0,0,0,0,0,79,44,0,0,0,0,0,0,0,0,0,0,0,0,0,0,0,0,0,0,0,0,0,0,0,0,0,0,0,0,0,0,0,0,0,0,0,0,0,0,0,0,0,0,0,0,0,0,0,0,0,0,0,0,0,0,0,13,-0.01642749,0,23.62676,2.357286,0.03154324,5.06532,3.100872,1,9.129987
188.012,40.38913,2.193671,25.44241,0.7168274,1.10997,1.962784,90,90,6.938894E-17,5.923589,41.63187,0.3239631,90.75962,1.638715,0.1570459,-0.2828922,0.9873258,-6.838903,-51.21476,-97.81864,-48.83687,106.5853,61.96078,1.11,1117.5,35,30,0,27.84314,28.23529,0.874527,15.19529,0.14,6.613288,135.6211,348.7,3.374875,5.592968,188,77,4339,0.97,1.617232,1.394531,1.613328,1.433594,0,0,0,0,0,0,0,0,0,0,0,0,12.96,0,0,0,0,0,0,0,0,0,79,44,0,0,0,0,0,0,0,0,0,0,0,0,0,0,0,0,0,0,0,0,0,0,0,0,0,0,0,0,0,0,0,0,0,0,0,0,0,0,0,0,0,0,0,0,0,0,0,0,0,0,0,0,0,0,0,13,-0.01642749,0,23.44986,2.388736,0.03182348,5.043039,3.136668,1,9.129987
189.013,40.38913,2.159925,25.4459,1.216766,-4.428497,1.650223,90,90,6.938894E-17,5.822045,41.63187,0.327448,89.36345,1.613507,0.205198,0.05027103,-0.1300066,-4.600138,-50.98249,-98.91172,-47.13898,107.3829,61.96078,1.11,1119.5,35,30,0,27.84314,28.23529,0.8700132,15.19529,0.14,6.511555,134.8783,348.8,3.322959,5.592445,188,77,4339,0.97,1.617232,1.394531,1.613328,1.433594,0,0,0,0,0,0,0,0,0,0,0,0,12.96,0,0,0,0,0,0,0,0,0,79,44,0,0,0,0,0,0,0,0,0,0,0,0,0,0,0,0,0,0,0,0,0,0,0,0,0,0,0,0,0,0,0,0,0,0,0,0,0,0,0,0,0,0,0,0,0,0,0,0,0,0,0,0,0,0,0,13,-0.03184887,0,23.44986,2.42773,0.03216581,5.015417,3.166429,1,9.129987
190.012,40.38913,2.159925,25.4459,-2.837479,1.341492,-3.56691,90,90,6.938894E-17,5.822045,41.63187,0.327448,89.36345,1.613507,0.3202962,0.1246808,-0.798421,-4.293859,-50.55862,-98.9483,-47.57469,106.3784,61.96078,1.11,1119.5,35,30,0,27.45098,27.45098,0.8700132,15.22248,0.14,6.511555,134.8783,348.9,3.322959,5.592445,188,77,4339,0.97,1.643096,1.4375,1.63968,1.460938,0,0,0,0,0,0,0,0,0,0,0,0,12.96,0,0,0,0,0,0,0,0,0,79,44,0,0,0,0,0,0,0,0,0,0,0,0,0,0,0,0,0,0,0,0,0,0,0,0,0,0,0,0,0,0,0,0,0,0,0,0,0,0,0,0,0,0,0,0,0,0,0,0,0,0,0,0,0,0,0,13,-0.03184887,0,23.82489,2.42773,0.03216581,5.015417,3.166429,1,9.129987
