Time (sec),Vehicle speed (MPH),Fuel rate (l/hr),Total CO2 (kg), Rotation Rate X (deg/s), Rotation Rate Y (deg/s), Rotation Rate Z (deg/s), Engine coolant temperature (°C),Engine coolant temperature 1 (°C),Acceleration (m/s²),Engine Torque (kg•m),Max Speed (MPH),Total Trip CO2 (kg),Instant CO2 rate (g/km),CO2 flow (g/s), Accel X (m/s²), Accel Y (m/s²), Accel Z (m/s²), Roll (deg), Pitch (deg),Magnetometer X (µT), Magnetometer Y (µT), Magnetometer Z (µT),Calculated load value (%), Intake manifold absolute pressure (bar),Engine RPM (RPM), Intake air temperature (°C), Ambient air temperature (°C), Absolute throttle position B (%), Accelerator pedal position D (%), Accelerator pedal position E (%), Intake manifold absolute pressure (bar), Mass air flow rate (g/s), Boost (bar),Engine Power (kW),Average Trip CO2 Rate (g/km),Altitude (m),Instant fuel economy (l/100 km),Total fuel economy (l/100 km), Time since engine start (sec), Number of warm-ups since DTCs cleared, Distance traveled since DTCs cleared (km), Barometric pressure (bar),O2 sensor lambda wide range (current probe)  (Bank 1  Sensor 1),O2 sensor current wide range (Bank 1  Sensor 1) (mA),O2 sensor lambda wide range (current probe)  (Bank 1  Sensor 2),O2 sensor current wide range (Bank 1  Sensor 2) (mA),O2 sensor lambda wide range (current probe)  (Bank 1  Sensor 3),O2 sensor current wide range (Bank 1  Sensor 3) (mA),O2 sensor lambda wide range (current probe)  (Bank 1  Sensor 4),O2 sensor current wide range (Bank 1  Sensor 4) (mA),O2 sensor lambda wide range (current probe)  (Bank 2  Sensor 1),O2 sensor current wide range (Bank 2  Sensor 1) (mA),O2 sensor lambda wide range (current probe)  (Bank 2  Sensor 2),O2 sensor current wide range (Bank 2  Sensor 2) (mA),O2 sensor lambda wide range (current probe)  (Bank 2  Sensor 3),O2 sensor current wide range (Bank 2  Sensor 3) (mA),O2 sensor lambda wide range (current probe)  (Bank 2  Sensor 4),O2 sensor current wide range (Bank 2  Sensor 4) (mA), Control module voltage (V), Absolute throttle position C (%), Mass air flow sensor B (g/s), Relative throttle B position (%), Commanded boost pressure A (bar), Boost pressure sensor A (bar), Commanded boost pressure B (bar), Boost pressure sensor B (bar), Boost pressure A control status, Boost pressure B control status,Charge air cooler temperature bank 1  sensor 1 (°C),Charge air cooler temperature bank 1  sensor 2 (°C), Manifold surface temperature (°C), Intake manifold absolute pressure A (bar), Intake manifold absolute pressure B (bar),Total run time with EI-AECD #11 Timer 1 active (sec),Total run time with EI-AECD #11 Timer 2 active (sec),Total run time with EI-AECD #12 Timer 1 active (sec),Total run time with EI-AECD #12 Timer 2 active (sec), Diesel aftertreatment status,O2 sensor concentration bank 1 sensor 1 (%),O2 sensor concentration bank 1 sensor 2 (%),O2 sensor concentration bank 2 sensor 1 (%),O2 sensor concentration bank 2 sensor 2 (%), Absolute throttle position G (%),Target SCR Catalyst NH3 Storage A (g/L),Actual/Modelled SCR Catalyst NH3 Storage A (g/L),Target SCR Catalyst NH3 Storage B (g/L),Actual/Modelled SCR Catalyst NH3 Storage B (g/L), Hydrocarbon Doser Flow Rate (g/min), Hydrocarbon Doser Injector Duty Cycle (%),O2 sensor concentration bank 1 sensor 3 (%),O2 sensor concentration bank 1 sensor 4 (%),O2 sensor concentration bank 2 sensor 3 (%),O2 sensor concentration bank 2 sensor 4 (%),O2 sensor lambda bank 1 sensor 3,O2 sensor lambda bank 1 sensor 4,O2 sensor lambda bank 2 sensor 3,O2 sensor lambda bank 2 sensor 4, Engine Fuel Rate (g/s), Vehicle Fuel Rate (g/s), Engine Exhaust Flow Rate (g/s),Fuel System A Use Percentage Bank 1 (%),Fuel System A Use Percentage Bank 2 (%), Cylinder Fuel Rate, Transmission Actual Gear Status, Transmission Actual Gear Ratio, Vehicle Odometer Reading (km), Motorcycle ABS Disable Switch State, Maximum Current Vehicle Speed Limit (MPH), Alternative Fuel Tank Pressure (bar), Alternative Fuel Tank Temperature (°C),Crankcase Pressure Sensor (inH2O),Fuel System Status Bank 1,Fuel System Status Bank 2,Short Term Fuel Trim Bank 1 (%),Long Term Fuel Trim Bank 1 (%),Short Term Fuel Trim Bank 2 (%),Long Term Fuel Trim Bank 2 (%),O2 Sensor Concentration Bank 1 Sensor 5 (%),O2 Sensor Concentration Bank 1 Sensor 6 (%),O2 Sensor Concentration Bank 2 Sensor 5 (%),O2 Sensor Concentration Bank 2 Sensor 6 (%),O2 Sensor Lambda Bank 1 Sensor 5,O2 Sensor Lambda Bank 1 Sensor 6,O2 Sensor Lambda Bank 2 Sensor 5,O2 Sensor Lambda Bank 2 Sensor 6, Input voltage read by the scan tool (V), Acceleration (Avg) (m/s²), A/F Commanded, A/F Actual,Trip Distance (km), Trip Fuel (gal),Trip Fuel Economy (l/100 km),Trip Duration (min), Idling Count, Seconds Idling (sec)
0.000,0,0,0,0.9320831,-0.2370605,-1.808166,0,0,0,0,0,0,0,0,0.5419757,2.738853,-1.436929,-3.138674,-54.29818,65.95663,17.91488,71.8597,0,0,0,0,0,0,0,0,0,0,0,0,0,345.2,0,0,0,0,0,0,0,0,0,0,0,0,0,0,0,0,0,0,0,0,0,0,0,0,0,0,0,0,0,0,0,0,0,0,0,0,0,0,0,0,0,0,0,0,0,0,0,0,0,0,0,0,0,0,0,0,0,0,0,0,0,0,0,0,0,0,0,0,0,0,0,0,0,0,0,0,0,0,0,0,0,0,0,0,0,0,0,0,0,0,0,0,0,0,0,0,0,0,0
6.513,0,0.7658874,3.431148,-1.03009,-0.4151917,0.383316,90,90,-0.003862283,2.360713,0,0.001967978,0,0.5721331,-0.2961682,0.04843409,-0.1574662,-13.23435,-74.7191,61.99611,-29.77819,73.55806,25.4902,1.01,979,45,34,0,15.29412,14.90196,0.8708065,11.73202,0.04,2.308931,0,345.3,0,5.66624,178,50,3417,0.97,4.109936,2.851563,4.045032,2.90625,0,0,0,0,0,0,0,0,0,0,0,0,12.82,0,0,0,0,0,0,0,0,0,69,54,0,0,0,0,0,0,0,0,0,0,0,0,0,0,0,0,0,0,0,0,0,0,0,0,0,0,0,0,0,0,0,0,0,0,0,0,0,0,0,0,0,0,0,0,0,0,0,0,0,0,0,0,0,0,0,12.9,-0.01837879,0,59.59407,0,0.0001933181,0,0.08825184,1,1.778297
7.514,0,0.8266524,3.432278,-2.810623,1.405869,7.012039,90,90,2.792905E-16,2.677942,0,0.003097609,0,0.6175258,-0.09277634,-0.3567877,0.07234126,-13.41728,-74.81945,60.6175,-29.74138,73.62502,43.92157,1.01,931.5,45,34,0,15.29412,14.90196,0.9538683,11.16279,0.04,2.49212,0,345.2,0,5.668105,178,50,3417,0.97,2.645936,2.332031,2.572736,2.347656,0,0,0,0,0,0,0,0,0,0,0,0,12.82,0,0,0,0,0,0,0,0,0,69,54,0,0,0,0,0,0,0,0,0,0,0,0,0,0,0,0,0,0,0,0,0,0,0,0,0,0,0,0,0,0,0,0,0,0,0,0,0,0,0,0,0,0,0,0,0,0,0,0,0,0,0,0,0,0,0,12.9,-0.03165989,0,38.36607,0,0.0003042838,0,0.1189838,1,3.622016
8.515,0,0.8266524,3.432278,-4.775879,3.24617,40.4951,90,90,2.792905E-16,2.677942,0,0.003097609,0,0.6175258,0.4258838,-0.3770524,0.1081055,-11.96277,-74.57864,55.45729,-33.71427,72.38914,43.92157,1.01,931.5,45,34,0,15.29412,14.90196,0.9538683,11.16279,0.04,2.49212,0,345.2,0,5.668105,178,50,3417,0.97,2.645936,2.332031,2.572736,2.347656,0,0,0,0,0,0,0,0,0,0,0,0,12.82,0,0,0,0,0,0,0,0,0,69,54,0,0,0,0,0,0,0,0,0,0,0,0,0,0,0,0,0,0,0,0,0,0,0,0,0,0,0,0,0,0,0,0,0,0,0,0,0,0,0,0,0,0,0,0,0,0,0,0,0,0,0,0,0,0,0,12.9,-0.03165989,0,38.36607,0,0.0003042838,0,0.1189838,1,3.622016
9.512,2.485485,0.9667311,3.433579,-7.687988,-7.597473,6.373199,90,90,0.3072458,2.934812,2.485485,0.004399061,649.9506,0.7221673,-0.2245757,0.07456247,0.02357343,-10.25194,-75.67438,56.89193,-39.5534,49.18652,34.5098,1.04,994,45,34,0,15.29412,16.86275,0.6804032,12.26559,0.07,2.914417,2189.581,345.1,24.16826,5.669749,178,50,3417,0.97,2.360456,2.144531,2.355088,2.195313,0,0,0,0,0,0,0,0,0,0,0,0,12.82,0,0,0,0,0,0,0,0,0,69,54,0,0,0,0,0,0,0,0,0,0,0,0,0,0,0,0,0,0,0,0,0,0,0,0,0,0,0,0,0,0,0,0,0,0,0,0,0,0,0,0,0,0,0,0,0,0,0,0,0,0,0,0,0,0,0,12.9,0.02978926,0,34.22661,0.002009089,0.0004321278,81.41904,0.148487,1,5.392228
10.513,2.485485,0.9667311,3.433579,-2.964355,5.006897,20.53343,90,90,0.3072458,2.934812,2.485485,0.004399061,649.9506,0.7221673,-0.2869601,-0.04570681,-0.007256967,-9.817801,-76.25822,55.78802,-37.49216,46.51996,34.5098,1.04,994,45,34,0,15.29412,16.86275,0.6804032,12.26559,0.07,2.914417,2189.581,344.9,24.16826,5.669749,178,50,3417,0.97,2.360456,2.144531,2.355088,2.195313,0,0,0,0,0,0,0,0,0,0,0,0,12.82,0,0,0,0,0,0,0,0,0,69,54,0,0,0,0,0,0,0,0,0,0,0,0,0,0,0,0,0,0,0,0,0,0,0,0,0,0,0,0,0,0,0,0,0,0,0,0,0,0,0,0,0,0,0,0,0,0,0,0,0,0,0,0,0,0,0,12.9,0.02978926,0,34.22661,0.002009089,0.0004321278,81.41904,0.148487,1,5.392228
11.519,3.728227,0.8605816,3.434739,-3.222519,5.746628,18.49683,90,90,0.4622169,2.211058,3.728227,0.005558808,385.7229,0.6428716,0.09876572,0.1319843,-0.1393622,-9.579335,-75.77325,51.25406,-33.6208,44.15594,53.72549,1.05,1174.5,44,34,0,28.62745,28.62745,0.7224113,14.63225,0.08,2.594407,1112.54,344.7,14.34302,5.670911,178,50,3417,0.97,1.416176,1.230469,1.394704,1.210938,0,0,0,0,0,0,0,0,0,0,0,0,12.82,0,0,0,0,0,0,0,0,0,69,54,0,0,0,0,0,0,0,0,0,0,0,0,0,0,0,0,0,0,0,0,0,0,0,0,0,0,0,0,0,0,0,0,0,0,0,0,0,0,0,0,0,0,0,0,0,0,0,0,0,0,0,0,0,0,0,12.9,0.07623222,0,20.53455,0.004996502,0.0005460519,41.36953,0.1856102,1,7.619613
12.514,3.728227,0.8605816,3.434739,-2.223969,2.300705,8.378967,90,90,0.4622169,2.211058,3.728227,0.005558808,385.7229,0.6428716,0.09960112,0.3037367,-0.3348033,-9.938273,-75.66153,49.90297,-29.66402,42.93582,53.72549,1.05,1174.5,44,34,0,28.62745,28.62745,0.7224113,14.63225,0.08,2.594407,1112.54,344.6,14.34302,5.670911,178,50,3417,0.97,1.416176,1.230469,1.394704,1.210938,0,0,0,0,0,0,0,0,0,0,0,0,12.82,0,0,0,0,0,0,0,0,0,69,54,0,0,0,0,0,0,0,0,0,0,0,0,0,0,0,0,0,0,0,0,0,0,0,0,0,0,0,0,0,0,0,0,0,0,0,0,0,0,0,0,0,0,0,0,0,0,0,0,0,0,0,0,0,0,0,12.9,0.07623222,0,20.53455,0.004996502,0.0005460519,41.36953,0.1856102,1,7.619613
13.518,6.213712,1.816236,3.4377,0.3283691,-0.1753235,0.7375946,90,90,0.4083155,4.477669,6.213712,0.00851944,488.4352,1.356765,0.292247,0.2384153,0.1062783,-10.24134,-75.22084,50.3742,-28.11612,42.36838,70.98039,1.06,1224,44,34,0,29.80392,29.80392,0.826215,15.4427,0.09,5.475432,768.3577,344.4,18.16235,5.674265,178,50,3417,0.97,1.36884,0.9960938,1.377136,1.03125,0,0,0,0,0,0,0,0,0,0,0,0,12.82,0,0,0,0,0,0,0,0,0,69,54,0,0,0,0,0,0,0,0,0,0,0,0,0,0,0,0,0,0,0,0,0,0,0,0,0,0,0,0,0,0,0,0,0,0,0,0,0,0,0,0,0,0,0,0,0,0,0,0,0,0,0,0,0,0,0,12.9,0.1269011,0,19.84818,0.01108786,0.0008368802,28.5712,0.2154275,1,9.408744
14.518,6.213712,1.816236,3.4377,0.6415405,-0.2082062,-0.3238831,90,90,0.4083155,4.477669,6.213712,0.00851944,488.4352,1.356765,0.3027042,-0.2527393,-0.1247658,-9.796645,-75.57581,50.52073,-28.09509,41.98056,70.98039,1.06,1224,44,34,0,29.80392,29.80392,0.826215,15.4427,0.09,5.475432,768.3577,344.4,18.16235,5.674265,178,50,3417,0.97,1.36884,0.9960938,1.377136,1.03125,0,0,0,0,0,0,0,0,0,0,0,0,12.82,0,0,0,0,0,0,0,0,0,69,54,0,0,0,0,0,0,0,0,0,0,0,0,0,0,0,0,0,0,0,0,0,0,0,0,0,0,0,0,0,0,0,0,0,0,0,0,0,0,0,0,0,0,0,0,0,0,0,0,0,0,0,0,0,0,0,12.9,0.1269011,0,19.84818,0.01108786,0.0008368802,28.5712,0.2154275,1,9.408744
15.515,9.320568,2.457724,3.441022,-0.5941162,0.9063263,-0.5006561,90,90,0.6393606,6.071566,9.320568,0.01184182,440.6325,1.835969,0.554009,-0.1691287,-0.03996426,-9.451399,-75.7885,50.63305,-28.22041,42.60419,65.88235,1.05,1221.5,44,34,0,23.52941,22.35294,0.8120214,15.26577,0.08,7.409334,637.2152,344.4,16.38482,5.677859,178,50,3417,0.97,1.734352,1.570313,1.721176,1.585938,0,0,0,0,0,0,0,0,0,0,0,0,12.82,0,0,0,0,0,0,0,0,0,69,54,0,0,0,0,0,0,0,0,0,0,0,0,0,0,0,0,0,0,0,0,0,0,0,0,0,0,0,0,0,0,0,0,0,0,0,0,0,0,0,0,0,0,0,0,0,0,0,0,0,0,0,0,0,0,0,13,0.2041043,0,25.1481,0.0185837,0.001163243,23.6947,0.2455479,1,9.408744
16.516,10.56331,1.66414,3.443257,-0.3956451,2.211533,1.774216,90,90,0.5403305,4.513889,10.56331,0.01407725,263.2544,1.243146,0.01847004,-0.4427986,0.2601392,-9.609435,-76.46754,50.98549,-28.0438,42.30702,14.5098,1.02,1112.5,44,34,0,15.68627,15.29412,0.593583,13.50629,0.05,5.016906,519.761,344.3,9.789052,5.679406,178,50,3417,0.97,3.143696,2.566406,3.038776,2.566406,0,0,0,0,0,0,0,0,0,0,0,0,12.82,0,0,0,0,0,0,0,0,0,69,54,0,0,0,0,0,0,0,0,0,0,0,0,0,0,0,0,0,0,0,0,0,0,0,0,0,0,0,0,0,0,0,0,0,0,0,0,0,0,0,0,0,0,0,0,0,0,0,0,0,0,0,0,0,0,0,13,0.2349672,0,45.58359,0.02708407,0.001382834,19.32719,0.2742656,1,9.408744
17.518,10.56331,1.66414,3.443257,-6.199158,3.176575,19.502,90,90,0.5403305,4.513889,10.56331,0.01407725,263.2544,1.243146,-0.3371089,-0.1491479,0.4410319,-10.02569,-78.08392,50.28232,-24.23292,40.3018,14.5098,1.02,1112.5,44,34,0,15.68627,15.29412,0.593583,13.50629,0.05,5.016906,519.761,344.3,9.789052,5.679406,178,50,3417,0.97,3.143696,2.566406,3.038776,2.566406,0,0,0,0,0,0,0,0,0,0,0,0,12.82,0,0,0,0,0,0,0,0,0,69,54,0,0,0,0,0,0,0,0,0,0,0,0,0,0,0,0,0,0,0,0,0,0,0,0,0,0,0,0,0,0,0,0,0,0,0,0,0,0,0,0,0,0,0,0,0,0,0,0,0,0,0,0,0,0,0,13,0.2349672,0,45.58359,0.02708407,0.001382834,19.32719,0.2742656,1,9.408744
18.516,10.56331,1.66414,3.443257,-2.07782,4.018204,26.07106,90,90,0.5403305,4.513889,10.56331,0.01407725,263.2544,1.243146,-0.5742133,0.1842463,0.1158591,-9.418367,-77.40981,51.24596,-17.13358,39.78932,14.5098,1.02,1112.5,44,34,0,15.68627,15.29412,0.593583,13.50629,0.05,5.016906,519.761,344.2,9.789052,5.679406,178,50,3417,0.97,3.143696,2.566406,3.038776,2.566406,0,0,0,0,0,0,0,0,0,0,0,0,12.82,0,0,0,0,0,0,0,0,0,69,54,0,0,0,0,0,0,0,0,0,0,0,0,0,0,0,0,0,0,0,0,0,0,0,0,0,0,0,0,0,0,0,0,0,0,0,0,0,0,0,0,0,0,0,0,0,0,0,0,0,0,0,0,0,0,0,13,0.2349672,0,45.58359,0.02708407,0.001382834,19.32719,0.2742656,1,9.408744
19.513,9.320568,0.3066258,3.443655,0.2030487,6.875595,20.61014,90,90,-0.004558794,0.902265,10.56331,0.01447554,54.97334,0.2290556,0.3092102,0.6674819,-0.1761533,-9.501464,-76.84092,55.43534,-10.59313,39.06215,10.58823,1.01,1025.5,43,34,0,22.35294,22.35294,0.5452571,12.32801,0.04,0.9243891,421.1779,344.1,2.044171,5.678228,178,50,3417,0.97,2.177456,2.023438,2.291648,2.144531,0,0,0,0,0,0,0,0,0,0,0,0,12.82,0,0,0,0,0,0,0,0,0,69,54,0,0,0,0,0,0,0,0,0,0,0,0,0,0,0,0,0,0,0,0,0,0,0,0,0,0,0,0,0,0,0,0,0,0,0,0,0,0,0,0,0,0,0,0,0,0,0,0,0,0,0,0,0,0,0,12.9,0.2186313,0,31.57311,0.03436919,0.001421959,15.6614,0.3100739,1,9.408744
20.513,9.941939,0.3157968,3.444158,-0.360611,2.503769,11.89943,90,90,-0.0933219,0.777916,10.56331,0.01497826,53.07896,0.2359065,-0.228526,0.1206483,-0.5082226,-9.695251,-76.71059,59.80935,-7.90139,38.883,52.54902,1.04,1225,43,34,0,25.4902,25.4902,0.8322065,15.21167,0.07,0.952037,342.0787,343.8,1.973729,5.676686,178,50,3417,0.97,1.626992,1.429688,1.650904,1.472656,0,0,0,0,0,0,0,0,0,0,0,0,12.82,0,0,0,0,0,0,0,0,0,69,54,0,0,0,0,0,0,0,0,0,0,0,0,0,0,0,0,0,0,0,0,0,0,0,0,0,0,0,0,0,0,0,0,0,0,0,0,0,0,0,0,0,0,0,0,0,0,0,0,0,0,0,0,0,0,0,12.9,0.2317415,0,23.59138,0.04378602,0.001471342,12.72012,0.3395801,1,9.408744
21.516,9.941939,0.3157968,3.444158,1.334335,2.037949,1.245239,90,90,-0.0933219,0.777916,10.56331,0.01497826,53.07896,0.2359065,0.4579659,0.5148672,0.1383589,-10.2194,-76.59123,61.51287,-6.923416,39.22615,52.54902,1.04,1225,43,34,0,25.4902,25.4902,0.8322065,15.21167,0.07,0.952037,342.0787,343.7,1.973729,5.676686,178,50,3417,0.97,1.626992,1.429688,1.650904,1.472656,0,0,0,0,0,0,0,0,0,0,0,0,12.82,0,0,0,0,0,0,0,0,0,69,54,0,0,0,0,0,0,0,0,0,0,0,0,0,0,0,0,0,0,0,0,0,0,0,0,0,0,0,0,0,0,0,0,0,0,0,0,0,0,0,0,0,0,0,0,0,0,0,0,0,0,0,0,0,0,0,12.9,0.2317415,0,23.59138,0.04378602,0.001471342,12.72012,0.3395801,1,9.408744
22.521,9.941939,0.3157968,3.444158,-1.642548,-0.2131805,1.852615,90,90,-0.0933219,0.777916,10.56331,0.01497826,53.07896,0.2359065,0.4160664,-0.150033,0.1086551,-10.30614,-76.93696,61.92429,-6.212143,38.84557,52.54902,1.04,1225,43,34,0,25.4902,25.4902,0.8322065,15.21167,0.07,0.952037,342.0787,343.7,1.973729,5.676686,178,50,3417,0.97,1.626992,1.429688,1.650904,1.472656,0,0,0,0,0,0,0,0,0,0,0,0,12.82,0,0,0,0,0,0,0,0,0,69,54,0,0,0,0,0,0,0,0,0,0,0,0,0,0,0,0,0,0,0,0,0,0,0,0,0,0,0,0,0,0,0,0,0,0,0,0,0,0,0,0,0,0,0,0,0,0,0,0,0,0,0,0,0,0,0,12.9,0.2317415,0,23.59138,0.04378602,0.001471342,12.72012,0.3395801,1,9.408744
23.513,11.18468,1.687257,3.446383,0.3141174,0.13974,2.567505,90,90,0.2218124,3.822417,11.18468,0.01720239,252.0829,1.260414,0.3085226,-0.2167525,-0.1219513,-9.583961,-77.45272,62.08386,-6.991112,38.90347,57.64706,1.02,1332,43,34,0,25.09804,24.70588,0.7500032,16.22228,0.05,5.086596,326.5805,343.7,9.373643,5.678115,197,50,3417,0.97,1.633336,1.441406,1.62992,1.457031,0,0,0,0,0,0,0,0,0,0,0,0,12.84,0,0,0,0,0,0,0,0,0,75,53,0,0,0,0,0,0,0,0,0,0,0,0,0,0,0,0,0,0,0,0,0,0,0,0,0,0,0,0,0,0,0,0,0,0,0,0,0,0,0,0,0,0,0,0,0,0,0,0,0,0,0,0,0,0,0,12.9,0.2637662,0,23.68337,0.05267427,0.001689822,12.14382,0.3767496,1,9.408744
24.518,13.04879,1.601229,3.449079,-0.1705322,0.5657501,0.6590729,90,90,0.3414741,3.428067,13.04879,0.01989843,205.0542,1.19615,-0.04786526,-0.1747637,0.08369847,-8.110109,-78.57058,62.31997,-6.546455,39.69916,12.15686,1.03,1409.5,43,34,0,15.29412,14.90196,0.596698,17.33443,0.06,4.827246,302.42,343.7,7.624893,5.679255,197,50,3417,0.97,11.62953,3.550781,5.576864,3.242188,0,0,0,0,0,0,0,0,0,0,0,0,12.84,0,0,0,0,0,0,0,0,0,75,53,0,0,0,0,0,0,0,0,0,0,0,0,0,0,0,0,0,0,0,0,0,0,0,0,0,0,0,0,0,0,0,0,0,0,0,0,0,0,0,0,0,0,0,0,0,0,0,0,0,0,0,0,0,0,0,12.9,0.3008088,0,168.6282,0.06579731,0.001954659,11.24542,0.4058417,1,9.408744
25.520,13.04879,1.601229,3.449079,-0.3848572,-0.5926971,-5.397018,90,90,0.3414741,3.428067,13.04879,0.01989843,205.0542,1.19615,0.4197942,0.3624576,-0.3218023,-6.819597,-78.74624,61.80624,-7.35421,39.319,12.15686,1.03,1409.5,43,34,0,15.29412,14.90196,0.596698,17.33443,0.06,4.827246,302.42,343.7,7.624893,5.679255,197,50,3417,0.97,11.62953,3.550781,5.576864,3.242188,0,0,0,0,0,0,0,0,0,0,0,0,12.84,0,0,0,0,0,0,0,0,0,75,53,0,0,0,0,0,0,0,0,0,0,0,0,0,0,0,0,0,0,0,0,0,0,0,0,0,0,0,0,0,0,0,0,0,0,0,0,0,0,0,0,0,0,0,0,0,0,0,0,0,0,0,0,0,0,0,12.9,0.3008088,0,168.6282,0.06579731,0.001954659,11.24542,0.4058417,1,9.408744
26.515,10.56331,0.2843009,3.449449,2.436005,-2.519165,-21.14191,90,90,-0.1348583,0.7555308,13.04879,0.02026893,44.97426,0.2123784,0.6362381,0.6148564,0.04567917,-5.714104,-78.68798,60.74726,-7.864326,38.96846,0,0.99,1135.5,44,34,0,15.29412,14.90196,0.4747602,13.42239,0.02,0.8570859,273.9274,343.6,1.672357,5.677804,197,50,3417,0.97,13.97144,3.585938,15.33198,3.710938,0,0,0,0,0,0,0,0,0,0,0,0,12.84,0,0,0,0,0,0,0,0,0,75,53,0,0,0,0,0,0,0,0,0,0,0,0,0,0,0,0,0,0,0,0,0,0,0,0,0,0,0,0,0,0,0,0,0,0,0,0,0,0,0,0,0,0,0,0,0,0,0,0,0,0,0,0,0,0,0,12.9,0.2367946,0,202.5859,0.07399379,0.001991054,10.18593,0.4408413,1,9.408744
27.513,10.56331,0.2843009,3.449449,1.331741,-7.535172,-31.40672,90,90,-0.1348583,0.7555308,13.04879,0.02026893,44.97426,0.2123784,-0.2574446,0.479846,-0.2125107,-7.504646,-78.22994,60.82371,-12.30482,37.45158,0,0.99,1135.5,44,34,0,15.29412,14.90196,0.4747602,13.42239,0.02,0.8570859,273.9274,343.5,1.672357,5.677804,197,50,3417,0.97,13.97144,3.585938,15.33198,3.710938,0,0,0,0,0,0,0,0,0,0,0,0,12.84,0,0,0,0,0,0,0,0,0,75,53,0,0,0,0,0,0,0,0,0,0,0,0,0,0,0,0,0,0,0,0,0,0,0,0,0,0,0,0,0,0,0,0,0,0,0,0,0,0,0,0,0,0,0,0,0,0,0,0,0,0,0,0,0,0,0,12.9,0.2367946,0,202.5859,0.07399379,0.001991054,10.18593,0.4408413,1,9.408744
28.518,8.699197,0,3.449449,5.134781,-5.243408,-28.29567,90,90,-0.5183713,0,13.04879,0.02026893,0,0,0.2135803,0.2271613,0.04152323,-8.028286,-78.02477,59.27102,-20.0451,38.45633,18.82353,1,983,44,34,0,15.29412,14.90196,0.4890784,11.7001,0.03,0,246.6854,343.8,0,5.675751,197,50,3417,0.97,3.559472,2.691406,3.800544,2.832031,0,0,0,0,0,0,0,0,0,0,0,0,12.84,0,0,0,0,0,0,0,0,0,75,53,0,0,0,0,0,0,0,0,0,0,0,0,0,0,0,0,0,0,0,0,0,0,0,0,0,0,0,0,0,0,0,0,0,0,0,0,0,0,0,0,0,0,0,0,0,0,0,0,0,0,0,0,0,0,0,12.9,0.1356854,0,51.61234,0.08216508,0.001991054,9.172939,0.4699304,1,9.408744
29.519,8.699197,0,3.449449,1.116852,-1.569046,-14.99274,90,90,-0.5183713,0,13.04879,0.02026893,0,0,-0.4075892,-0.04394029,-0.03823235,-8.636818,-78.32937,61.91706,-26.2944,38.59422,18.82353,1,983,44,34,0,15.29412,14.90196,0.4890784,11.7001,0.03,0,246.6854,344,0,5.675751,197,50,3417,0.97,3.559472,2.691406,3.800544,2.832031,0,0,0,0,0,0,0,0,0,0,0,0,12.84,0,0,0,0,0,0,0,0,0,75,53,0,0,0,0,0,0,0,0,0,0,0,0,0,0,0,0,0,0,0,0,0,0,0,0,0,0,0,0,0,0,0,0,0,0,0,0,0,0,0,0,0,0,0,0,0,0,0,0,0,0,0,0,0,0,0,12.9,0.1356854,0,51.61234,0.08216508,0.001991054,9.172939,0.4699304,1,9.408744
30.525,8.699197,0.3884187,3.449954,2.246567,-3.211227,-13.96747,90,90,-0.1983002,1.219023,13.04879,0.02077391,74.61167,0.2901565,0.04370712,-0.2263543,0.4283526,-8.055236,-77.78231,64.06493,-29.96422,40.37631,32.54902,1.01,961.5,44,34,0,15.29412,14.90196,0.6025592,11.55863,0.04,1.170971,233.6214,343.9,2.774417,5.674886,197,50,3417,0.97,2.446832,2.214844,2.438048,2.253906,0,0,0,0,0,0,0,0,0,0,0,0,12.84,0,0,0,0,0,0,0,0,0,75,53,0,0,0,0,0,0,0,0,0,0,0,0,0,0,0,0,0,0,0,0,0,0,0,0,0,0,0,0,0,0,0,0,0,0,0,0,0,0,0,0,0,0,0,0,0,0,0,0,0,0,0,0,0,0,0,12.9,0.1046911,0,35.47906,0.08892127,0.002040659,8.687157,0.4997777,1,9.408744
31.524,8.699197,0.3884187,3.449954,4.450027,-3.665726,-21.3873,90,90,-0.1983002,1.219023,13.04879,0.02077391,74.61167,0.2901565,0.1709587,-0.08984255,-0.4336506,-8.508575,-77.10065,68.2122,-33.33559,40.58102,32.54902,1.01,961.5,44,34,0,15.29412,14.90196,0.6025592,11.55863,0.04,1.170971,233.6214,343.8,2.774417,5.674886,197,50,3417,0.97,2.446832,2.214844,2.438048,2.253906,0,0,0,0,0,0,0,0,0,0,0,0,12.84,0,0,0,0,0,0,0,0,0,75,53,0,0,0,0,0,0,0,0,0,0,0,0,0,0,0,0,0,0,0,0,0,0,0,0,0,0,0,0,0,0,0,0,0,0,0,0,0,0,0,0,0,0,0,0,0,0,0,0,0,0,0,0,0,0,0,12.9,0.1046911,0,35.47906,0.08892127,0.002040659,8.687157,0.4997777,1,9.408744
32.522,8.699197,0.6925997,3.450889,3.193573,-3.427521,-28.91104,90,90,4.163336E-16,2.143575,13.04879,0.02170915,133.042,0.5173857,0.03742953,0.4231829,-0.02355994,-10.52691,-77.16164,77.34828,-37.34121,43.12526,34.90196,1.03,975,44,34,0,15.29412,14.90196,0.6352567,11.95302,0.06,2.08799,226.3294,343.6,4.947137,5.674667,197,50,3417,0.97,2.241384,2.0625,2.223328,2.097656,0,0,0,0,0,0,0,0,0,0,0,0,12.84,0,0,0,0,0,0,0,0,0,75,53,0,0,0,0,0,0,0,0,0,0,0,0,0,0,0,0,0,0,0,0,0,0,0,0,0,0,0,0,0,0,0,0,0,0,0,0,0,0,0,0,0,0,0,0,0,0,0,0,0,0,0,0,0,0,0,12.9,0.05402227,0,32.50007,0.09591839,0.00213253,8.416005,0.5296325,1,9.408744
33.522,8.699197,0.6925997,3.450889,3.799469,-4.846405,-27.97729,90,90,4.163336E-16,2.143575,13.04879,0.02170915,133.042,0.5173857,-0.780009,0.07133492,-0.3983709,-11.41337,-78.73988,88.87378,-35.0797,43.12515,34.90196,1.03,975,44,34,0,15.29412,14.90196,0.6352567,11.95302,0.06,2.08799,226.3294,343.4,4.947137,5.674667,197,50,3417,0.97,2.241384,2.0625,2.223328,2.097656,0,0,0,0,0,0,0,0,0,0,0,0,12.84,0,0,0,0,0,0,0,0,0,75,53,0,0,0,0,0,0,0,0,0,0,0,0,0,0,0,0,0,0,0,0,0,0,0,0,0,0,0,0,0,0,0,0,0,0,0,0,0,0,0,0,0,0,0,0,0,0,0,0,0,0,0,0,0,0,0,12.9,0.05402227,0,32.50007,0.09591839,0.00213253,8.416005,0.5296325,1,9.408744
34.568,8.699197,0.8305205,3.451983,0.4449615,-0.7117157,-41.25266,90,90,4.163336E-16,2.463071,13.04879,0.02280262,159.5354,0.6204153,-1.040751,-1.252168,0.2608336,-12.40949,-85.8055,129.9975,6.380966,27.77528,45.09804,1.04,1017.5,45,34,0,29.41176,29.41176,0.7005676,12.59516,0.07,2.503782,221.786,343.4,5.932285,5.674735,197,50,3417,0.97,1.589904,1.367188,1.601128,1.410156,0,0,0,0,0,0,0,0,0,0,0,0,12.84,0,0,0,0,0,0,0,0,0,75,53,0,0,0,0,0,0,0,0,0,0,0,0,0,0,0,0,0,0,0,0,0,0,0,0,0,0,0,0,0,0,0,0,0,0,0,0,0,0,0,0,0,0,0,0,0,0,0,0,0,0,0,0,0,0,0,13,-0.02318098,0,23.05361,0.1028136,0.002239943,8.247061,0.5647073,1,9.408744
35.527,8.699197,0.8305205,3.451983,0.9826202,-0.7001037,0.04734802,90,90,4.163336E-16,2.463071,13.04879,0.02280262,159.5354,0.6204153,-0.2329625,-1.273465,0.2279995,-12.39001,268.2333,127.4704,21.77834,4.090088,45.09804,1.04,1017.5,45,34,0,29.41176,29.41176,0.7005676,12.59516,0.07,2.503782,221.786,343.4,5.932285,5.674735,197,50,3417,0.97,1.589904,1.367188,1.601128,1.410156,0,0,0,0,0,0,0,0,0,0,0,0,12.84,0,0,0,0,0,0,0,0,0,75,53,0,0,0,0,0,0,0,0,0,0,0,0,0,0,0,0,0,0,0,0,0,0,0,0,0,0,0,0,0,0,0,0,0,0,0,0,0,0,0,0,0,0,0,0,0,0,0,0,0,0,0,0,0,0,0,13,-0.02318098,0,23.05361,0.1028136,0.002239943,8.247061,0.5647073,1,9.408744
36.524,10.56331,1.712015,3.454667,-1.257034,-1.512131,-0.1131592,90,90,0.1982503,3.913765,13.04879,0.02548695,270.8279,1.278909,0.6279495,-0.2657407,0.3610767,-12.10274,268.0603,127.7168,21.30242,4.562866,86.66666,1.1,1320,45,34,0,34.90196,35.29412,1.074328,17.22802,0.13,5.161236,226.0716,343.4,10.07067,5.676657,197,50,3417,0.97,1.426912,1.117188,1.427888,1.136719,0,0,0,0,0,0,0,0,0,0,0,0,12.84,0,0,0,0,0,0,0,0,0,75,53,0,0,0,0,0,0,0,0,0,0,0,0,0,0,0,0,0,0,0,0,0,0,0,0,0,0,0,0,0,0,0,0,0,0,0,0,0,0,0,0,0,0,0,0,0,0,0,0,0,0,0,0,0,0,0,13,-0.01439376,0,20.69022,0.1127384,0.00250363,8.40642,0.5971414,1,9.408744
37.537,10.56331,1.712015,3.454667,0.2098694,-0.1156464,-1.277954,90,90,0.1982503,3.913765,13.04879,0.02548695,270.8279,1.278909,0.4477719,-0.2165222,0.2450557,-10.21611,268.2141,127.5201,21.03162,4.381485,86.66666,1.1,1320,45,34,0,34.90196,35.29412,1.074328,17.22802,0.13,5.161236,226.0716,343.4,10.07067,5.676657,197,50,3417,0.97,1.426912,1.117188,1.427888,1.136719,0,0,0,0,0,0,0,0,0,0,0,0,12.84,0,0,0,0,0,0,0,0,0,75,53,0,0,0,0,0,0,0,0,0,0,0,0,0,0,0,0,0,0,0,0,0,0,0,0,0,0,0,0,0,0,0,0,0,0,0,0,0,0,0,0,0,0,0,0,0,0,0,0,0,0,0,0,0,0,0,13,-0.01439376,0,20.69022,0.1127384,0.00250363,8.40642,0.5971414,1,9.408744
38.577,14.29154,2.993258,3.459036,2.237015,2.465759,-1.132294,90,90,0.6251898,5.718544,14.29154,0.02985612,349.9862,2.236023,-0.2556971,0.07499518,0.3104498,-13.62872,268.993,127.5561,21.09501,10.66154,5.882353,1.1,1579.5,45,34,0,15.29412,14.90196,0.7534239,20.61489,0.13,9.023814,238.4508,343.5,13.01415,5.680706,197,50,3417,0.97,12.18341,3.566406,5.864784,3.261719,0,0,0,0,0,0,0,0,0,0,0,0,12.84,0,0,0,0,0,0,0,0,0,75,53,0,0,0,0,0,0,0,0,0,0,0,0,0,0,0,0,0,0,0,0,0,0,0,0,0,0,0,0,0,0,0,0,0,0,0,0,0,0,0,0,0,0,0,0,0,0,0,0,0,0,0,0,0,0,0,14.6,0.1027687,0,176.6594,0.1252087,0.002932821,8.866737,0.6269182,1,9.408744
39.544,11.80605,0.1482396,3.459236,0.8707428,0.05258179,-0.8461304,90,90,0.1176473,0.3755895,14.29154,0.03005571,20.98192,0.1107379,-1.353247,-0.08337759,-0.5107858,-13.09898,269.2687,128.9404,21.78937,10.89003,0,1.01,1191,45,34,0,15.29412,14.90196,0.4594253,14.27256,0.04,0.4468999,223.1494,343.5,0.7802078,5.678657,197,50,3417,0.97,3.797128,2.769531,4.373456,2.96875,0,0,0,0,0,0,0,0,0,0,0,0,12.84,0,0,0,0,0,0,0,0,0,75,53,0,0,0,0,0,0,0,0,0,0,0,0,0,0,0,0,0,0,0,0,0,0,0,0,0,0,0,0,0,0,0,0,0,0,0,0,0,0,0,0,0,0,0,0,0,0,0,0,0,0,0,0,0,0,0,14.6,0.02780008,0,55.05836,0.1346887,0.002952427,8.297756,0.6559568,1,9.408744
40.519,11.80605,0.1482396,3.459236,-0.262207,-0.6335449,-1.054413,90,90,0.1176473,0.3755895,14.29154,0.03005571,20.98192,0.1107379,-0.8347936,-0.2880487,-0.312602,-14.0842,269.3678,128.37,21.73866,10.4765,0,1.01,1191,45,34,0,15.29412,14.90196,0.4594253,14.27256,0.04,0.4468999,223.1494,343.5,0.7802078,5.678657,197,50,3417,0.97,3.797128,2.769531,4.373456,2.96875,0,0,0,0,0,0,0,0,0,0,0,0,12.84,0,0,0,0,0,0,0,0,0,75,53,0,0,0,0,0,0,0,0,0,0,0,0,0,0,0,0,0,0,0,0,0,0,0,0,0,0,0,0,0,0,0,0,0,0,0,0,0,0,0,0,0,0,0,0,0,0,0,0,0,0,0,0,0,0,0,14.6,0.02780008,0,55.05836,0.1346887,0.002952427,8.297756,0.6559568,1,9.408744
41.521,11.80605,0.1482396,3.459236,-0.3553314,-0.1803894,-1.2966,90,90,0.1176473,0.3755895,14.29154,0.03005571,20.98192,0.1107379,-0.4867067,-0.1198738,0.04648478,-15.4984,269.3381,128.9351,20.93867,10.26241,0,1.01,1191,45,34,0,15.29412,14.90196,0.4594253,14.27256,0.04,0.4468999,223.1494,343.6,0.7802078,5.678657,197,50,3417,0.97,3.797128,2.769531,4.373456,2.96875,0,0,0,0,0,0,0,0,0,0,0,0,12.84,0,0,0,0,0,0,0,0,0,75,53,0,0,0,0,0,0,0,0,0,0,0,0,0,0,0,0,0,0,0,0,0,0,0,0,0,0,0,0,0,0,0,0,0,0,0,0,0,0,0,0,0,0,0,0,0,0,0,0,0,0,0,0,0,0,0,14.6,0.02780008,0,55.05836,0.1346887,0.002952427,8.297756,0.6559568,1,9.408744
42.522,5.592341,0,3.459236,0.6401367,1.624344,-1.064713,90,90,-1.107908,0,14.29154,0.03005571,0,0,0.4431184,-0.04379012,0.113022,-17.29397,269.2765,129.8971,22.07504,11.49234,21.96078,1.03,1160,46,34,0,26.66667,27.05882,0.4479436,14.17633,0.06,0,216.1713,343.6,0,5.677567,217,50,3417,0.97,3.797128,2.769531,4.373456,2.96875,0,0,0,0,0,0,0,0,0,0,0,0,12.84,0,0,0,0,0,0,0,0,0,75,53,0,0,0,0,0,0,0,0,0,0,0,0,0,0,0,0,0,0,0,0,0,0,0,0,0,0,0,0,0,0,0,0,0,0,0,0,0,0,0,0,0,0,0,0,0,0,0,0,0,0,0,0,0,0,0,14.6,-0.1631753,0,55.05836,0.1390365,0.002952427,8.038278,0.7090762,1,9.408744
43.529,5.592341,0,3.459236,1.311172,1.828934,0.2234344,90,90,-1.107908,0,14.29154,0.03005571,0,0,0.3809242,0.1916745,0.7310907,-15.66511,269.3001,128.9086,22.12244,10.13942,21.96078,1.03,1160,46,34,0,26.66667,27.05882,0.4479436,14.17633,0.06,0,216.1713,343.6,0,5.677567,217,50,3417,0.97,1.591856,1.382813,1.581608,1.398438,0,0,0,0,0,0,0,0,0,0,0,0,13.32,0,0,0,0,0,0,0,0,0,76,53,0,0,0,0,0,0,0,0,0,0,0,0,0,0,0,0,0,0,0,0,0,0,0,0,0,0,0,0,0,0,0,0,0,0,0,0,0,0,0,0,0,0,0,0,0,0,0,0,0,0,0,0,0,0,0,13.4,-0.1631753,0,23.08191,0.1390365,0.002952427,8.038278,0.7090762,1,9.408744
44.527,8.077826,0.5765676,3.460605,-1.396194,-0.6847839,0.3798523,90,90,-0.623852,1.704898,14.29154,0.0314248,119.2728,0.4307075,0.2378941,-0.08492364,0.08096594,-14.612,269.6487,127.7133,22.80535,7.373764,17.64706,1.02,1020.5,46,34,0,15.29412,14.90196,0.6537756,12.31173,0.05,1.738186,208.7806,343.7,4.435133,5.676937,217,50,3417,0.97,2.27164,2.089844,2.257488,2.121094,0,0,0,0,0,0,0,0,0,0,0,0,13.32,0,0,0,0,0,0,0,0,0,76,53,0,0,0,0,0,0,0,0,0,0,0,0,0,0,0,0,0,0,0,0,0,0,0,0,0,0,0,0,0,0,0,0,0,0,0,0,0,0,0,0,0,0,0,0,0,0,0,0,0,0,0,0,0,0,0,13.4,-0.1652651,0,32.93878,0.1505159,0.003086915,7.763457,0.7378713,1,9.408744
45.518,8.077826,0.5765676,3.460605,-2.016266,-1.214996,2.896927,90,90,-0.623852,1.704898,14.29154,0.0314248,119.2728,0.4307075,-0.3582146,-0.01378852,0.5163261,-13.4241,269.117,130.4478,21.08382,10.04018,17.64706,1.02,1020.5,46,34,0,15.29412,14.90196,0.6537756,12.31173,0.05,1.738186,208.7806,343.6,4.435133,5.676937,217,50,3417,0.97,2.27164,2.089844,2.257488,2.121094,0,0,0,0,0,0,0,0,0,0,0,0,13.32,0,0,0,0,0,0,0,0,0,76,53,0,0,0,0,0,0,0,0,0,0,0,0,0,0,0,0,0,0,0,0,0,0,0,0,0,0,0,0,0,0,0,0,0,0,0,0,0,0,0,0,0,0,0,0,0,0,0,0,0,0,0,0,0,0,0,13.4,-0.1652651,0,32.93878,0.1505159,0.003086915,7.763457,0.7378713,1,9.408744
46.522,5.592341,0.3713738,3.461096,-5.225647,0.6562805,7.497009,90,90,-0.1443022,1.134267,14.29154,0.03191561,110.9694,0.2774236,-1.039395,-0.08388576,-0.08279032,-15.02964,267.957,129.6919,17.94113,10.58539,24.70588,1.02,988,46,34,0,15.29412,14.90196,0.5956761,11.91963,0.05,1.119586,206.0815,343.6,4.126372,5.676652,217,50,3417,0.97,2.372656,2.15625,2.396568,2.214844,0,0,0,0,0,0,0,0,0,0,0,0,13.32,0,0,0,0,0,0,0,0,0,76,53,0,0,0,0,0,0,0,0,0,0,0,0,0,0,0,0,0,0,0,0,0,0,0,0,0,0,0,0,0,0,0,0,0,0,0,0,0,0,0,0,0,0,0,0,0,0,0,0,0,0,0,0,0,0,0,13.4,-0.165064,0,34.40351,0.1548689,0.003135128,7.663091,0.7698755,1,9.408744
47.542,5.592341,0.3713738,3.461096,-4.136856,2.81044,19.66264,90,90,-0.1443022,1.134267,14.29154,0.03191561,110.9694,0.2774236,-0.3278515,-0.5792583,-0.5252315,-16.93639,268.1142,127.051,15.11121,10.18871,24.70588,1.02,988,46,34,0,15.29412,14.90196,0.5956761,11.91963,0.05,1.119586,206.0815,343.6,4.126372,5.676652,217,50,3417,0.97,2.372656,2.15625,2.396568,2.214844,0,0,0,0,0,0,0,0,0,0,0,0,13.32,0,0,0,0,0,0,0,0,0,76,53,0,0,0,0,0,0,0,0,0,0,0,0,0,0,0,0,0,0,0,0,0,0,0,0,0,0,0,0,0,0,0,0,0,0,0,0,0,0,0,0,0,0,0,0,0,0,0,0,0,0,0,0,0,0,0,13.4,-0.165064,0,34.40351,0.1548689,0.003135128,7.663091,0.7698755,1,9.408744
48.541,3.728227,1.14253,3.462735,-7.697632,-3.018829,25.05548,90,90,-0.5362532,2.795048,14.29154,0.03355503,512.0953,0.8534923,-0.06468469,-0.9325128,-0.2782815,-16.4122,267.5161,122.5188,6.089012,6.77063,80.78432,1.14,1233.5,46,34,0,34.11765,34.11765,1.352055,16.6322,0.17,3.444399,212.2845,343.6,19.04214,5.67854,217,50,3417,0.97,1.233664,0.6953125,1.235128,0.6992188,0,0,0,0,0,0,0,0,0,0,0,0,13.32,0,0,0,0,0,0,0,0,0,76,53,0,0,0,0,0,0,0,0,0,0,0,0,0,0,0,0,0,0,0,0,0,0,0,0,0,0,0,0,0,0,0,0,0,0,0,0,0,0,0,0,0,0,0,0,0,0,0,0,0,0,0,0,0,0,0,13.4,-0.1688415,0,17.88813,0.1580663,0.003296172,7.893749,0.7993205,1,9.408744
49.524,3.728227,1.14253,3.462735,-5.756058,0.7862396,23.80836,90,90,-0.5362532,2.795048,14.29154,0.03355503,512.0953,0.8534923,0.1052768,-0.2660477,-0.2661762,-13.67707,265.7687,133.731,-3.469467,5.240601,80.78432,1.14,1233.5,46,34,0,34.11765,34.11765,1.352055,16.6322,0.17,3.444399,212.2845,343.7,19.04214,5.67854,217,50,3417,0.97,1.233664,0.6953125,1.235128,0.6992188,0,0,0,0,0,0,0,0,0,0,0,0,13.32,0,0,0,0,0,0,0,0,0,76,53,0,0,0,0,0,0,0,0,0,0,0,0,0,0,0,0,0,0,0,0,0,0,0,0,0,0,0,0,0,0,0,0,0,0,0,0,0,0,0,0,0,0,0,0,0,0,0,0,0,0,0,0,0,0,0,13.4,-0.1688415,0,17.88813,0.1580663,0.003296172,7.893749,0.7993205,1,9.408744
50.525,7.456454,3.591657,3.467407,-1.202682,3.900284,11.69254,90,90,0.2531896,8.829464,14.29154,0.03822732,804.9116,2.683039,-0.1750993,0.9926274,-0.07217273,-14.75026,266.5218,128.2762,-2.580513,4.085449,80.78432,1.21,1227.5,49,33,0,34.90196,35.29412,1.041149,17.56761,0.24,10.82782,233.1336,343.7,29.93045,5.684722,217,50,3417,0.97,1.291736,0.828125,1.289784,0.84375,0,0,0,0,0,0,0,0,0,0,0,0,13.32,0,0,0,0,0,0,0,0,0,76,53,0,0,0,0,0,0,0,0,0,0,0,0,0,0,0,0,0,0,0,0,0,0,0,0,0,0,0,0,0,0,0,0,0,0,0,0,0,0,0,0,0,0,0,0,0,0,0,0,0,0,0,0,0,0,0,13.4,-0.07476608,0,18.73017,0.1639718,0.00375514,8.669018,0.8354359,1,9.408744
51.533,7.456454,3.591657,3.467407,0.2100525,0.2605286,3.32959,90,90,0.2531896,8.829464,14.29154,0.03822732,804.9116,2.683039,-0.2064727,0.2668704,0.4685938,-15.61318,265.8517,126.3648,-1.635216,3.506363,80.78432,1.21,1227.5,49,33,0,34.90196,35.29412,1.041149,17.56761,0.24,10.82782,233.1336,343.7,29.93045,5.684722,217,50,3417,0.97,1.291736,0.828125,1.289784,0.84375,0,0,0,0,0,0,0,0,0,0,0,0,13.32,0,0,0,0,0,0,0,0,0,76,53,0,0,0,0,0,0,0,0,0,0,0,0,0,0,0,0,0,0,0,0,0,0,0,0,0,0,0,0,0,0,0,0,0,0,0,0,0,0,0,0,0,0,0,0,0,0,0,0,0,0,0,0,0,0,0,13.4,-0.07476608,0,18.73017,0.1639718,0.00375514,8.669018,0.8354359,1,9.408744
52.524,12.42742,4.43105,3.47453,1.065704,-2.573257,-0.5185242,90,90,0.983834,8.767944,14.29154,0.04534987,595.8148,3.310082,-0.3055878,-0.1475366,0.7473764,-15.64553,266.0454,126.1583,-2.016823,3.020905,81.96078,1.26,1525,49,33,0,40,40.39216,1.302884,22.51556,0.29,13.35835,257.6787,343.8,22.15523,5.693381,217,50,3417,0.97,1.396656,1.0625,1.390312,1.050781,0,0,0,0,0,0,0,0,0,0,0,0,13.32,0,0,0,0,0,0,0,0,0,76,53,0,0,0,0,0,0,0,0,0,0,0,0,0,0,0,0,0,0,0,0,0,0,0,0,0,0,0,0,0,0,0,0,0,0,0,0,0,0,0,0,0,0,0,0,0,0,0,0,0,0,0,0,0,0,0,13.4,0.02792528,0,20.25151,0.1759939,0.004454801,9.581722,0.8645972,1,9.408744
53.525,12.42742,4.43105,3.47453,-0.5106049,-3.274811,-0.7914429,90,90,0.983834,8.767944,14.29154,0.04534987,595.8148,3.310082,0.1074203,-0.08642397,0.338781,-15.6425,266.7238,126.2472,-2.190392,2.792862,81.96078,1.26,1525,49,33,0,40,40.39216,1.302884,22.51556,0.29,13.35835,257.6787,343.9,22.15523,5.693381,217,50,3417,0.97,1.396656,1.0625,1.390312,1.050781,0,0,0,0,0,0,0,0,0,0,0,0,13.32,0,0,0,0,0,0,0,0,0,76,53,0,0,0,0,0,0,0,0,0,0,0,0,0,0,0,0,0,0,0,0,0,0,0,0,0,0,0,0,0,0,0,0,0,0,0,0,0,0,0,0,0,0,0,0,0,0,0,0,0,0,0,0,0,0,0,13.4,0.02792528,0,20.25151,0.1759939,0.004454801,9.581722,0.8645972,1,9.408744
54.523,16.77702,5.810189,3.482125,0.7909393,1.361008,-1.607925,90,90,1.073678,10.24411,16.77702,0.05294451,578.7101,4.340326,0.0091111,0.07995956,-0.332803,-15.31457,266.8874,125.8356,-2.262466,3.165939,60.78431,1.31,1711.5,49,33,0,38.03922,38.03922,1.355382,26.27185,0.34,17.51605,280.1155,343.9,21.5192,5.702555,217,50,3417,0.97,1.369328,1.003906,1.3542,0.9765625,0,0,0,0,0,0,0,0,0,0,0,0,13.32,0,0,0,0,0,0,0,0,0,76,53,0,0,0,0,0,0,0,0,0,0,0,0,0,0,0,0,0,0,0,0,0,0,0,0,0,0,0,0,0,0,0,0,0,0,0,0,0,0,0,0,0,0,0,0,0,0,0,0,0,0,0,0,0,0,0,13,0.1399695,0,19.85526,0.1890096,0.005200836,10.41603,0.8944763,1,9.408744
55.535,19.26251,1.802233,3.484542,0.1595001,-0.906601,-1.013641,90,90,0.8675241,4.277161,19.26251,0.05536224,156.345,1.346304,0.1564727,-0.2238059,-0.3484017,-15.29892,267.7766,126.4052,-2.648743,3.557953,63.92157,1.14,1271.5,49,33,0,30.58824,30.98039,0.5051148,16.98493,0.17,5.433217,270.618,343.9,5.813651,5.702605,217,50,3417,0.97,1.447408,1.144531,1.445456,1.15625,0,0,0,0,0,0,0,0,0,0,0,0,13.32,0,0,0,0,0,0,0,0,0,76,53,0,0,0,0,0,0,0,0,0,0,0,0,0,0,0,0,0,0,0,0,0,0,0,0,0,0,0,0,0,0,0,0,0,0,0,0,0,0,0,0,0,0,0,0,0,0,0,0,0,0,0,0,0,0,0,13,0.16178,0,20.98742,0.2045771,0.005438334,10.06287,0.9240035,1,9.408744
56.522,19.26251,1.802233,3.484542,-0.8274994,4.691452,-1.777908,90,90,0.8675241,4.277161,19.26251,0.05536224,156.345,1.346304,0.08484598,0.4089019,-0.1597574,-15.14749,267.8743,126.2182,-2.965271,3.633301,63.92157,1.14,1271.5,49,33,0,30.58824,30.98039,0.5051148,16.98493,0.17,5.433217,270.618,343.8,5.813651,5.702605,217,50,3417,0.97,1.447408,1.144531,1.445456,1.15625,0,0,0,0,0,0,0,0,0,0,0,0,13.32,0,0,0,0,0,0,0,0,0,76,53,0,0,0,0,0,0,0,0,0,0,0,0,0,0,0,0,0,0,0,0,0,0,0,0,0,0,0,0,0,0,0,0,0,0,0,0,0,0,0,0,0,0,0,0,0,0,0,0,0,0,0,0,0,0,0,13,0.16178,0,20.98742,0.2045771,0.005438334,10.06287,0.9240035,1,9.408744
57.530,19.26251,1.802233,3.484542,0.9906311,0.8977967,-0.3247375,90,90,0.8675241,4.277161,19.26251,0.05536224,156.345,1.346304,0.1982467,-0.1895261,-0.4084323,-14.57388,269.1149,126.2397,-4.13546,4.14978,63.92157,1.14,1271.5,49,33,0,30.58824,30.98039,0.5051148,16.98493,0.17,5.433217,270.618,343.8,5.813651,5.702605,217,50,3417,0.97,1.447408,1.144531,1.445456,1.15625,0,0,0,0,0,0,0,0,0,0,0,0,13.32,0,0,0,0,0,0,0,0,0,76,53,0,0,0,0,0,0,0,0,0,0,0,0,0,0,0,0,0,0,0,0,0,0,0,0,0,0,0,0,0,0,0,0,0,0,0,0,0,0,0,0,0,0,0,0,0,0,0,0,0,0,0,0,0,0,0,13,0.16178,0,20.98742,0.2045771,0.005438334,10.06287,0.9240035,1,9.408744
58.518,20.50525,1.985056,3.487211,0.1044922,2.391891,-0.5014648,90,90,0.4648759,4.488645,20.50525,0.0580308,161.7683,1.482876,-0.03414586,-0.239808,-0.3663292,-14.53793,269.3419,126.222,-4.013,3.939178,56.07843,1.04,1334.5,47,33,0,25.09804,24.70588,0.7121255,16.26276,0.07,5.984376,262.8961,343.8,6.015317,5.702916,217,50,3417,0.97,1.752408,1.601563,1.707024,1.574219,0,0,0,0,0,0,0,0,0,0,0,0,13.32,0,0,0,0,0,0,0,0,0,76,53,0,0,0,0,0,0,0,0,0,0,0,0,0,0,0,0,0,0,0,0,0,0,0,0,0,0,0,0,0,0,0,0,0,0,0,0,0,0,0,0,0,0,0,0,0,0,0,0,0,0,0,0,0,0,0,13,0.1079067,0,25.40992,0.2207366,0.005700471,9.775732,0.9595649,1,9.408744
59.541,20.50525,1.649574,3.489796,1.430206,1.113754,-0.6927948,90,90,0.157573,3.716124,20.50525,0.06061626,134.4289,1.232265,-0.1576393,-0.01900261,-0.6934828,-14.2928,268.5134,126.5535,-3.263588,2.80098,23.52941,1.02,1339.5,47,33,0,20,20,0.6387051,16.10979,0.05,4.972994,252.2379,343.8,4.998707,5.702235,217,50,3417,0.97,2.748904,2.386719,2.663016,2.394531,0,0,0,0,0,0,0,0,0,0,0,0,13.32,0,0,0,0,0,0,0,0,0,76,53,0,0,0,0,0,0,0,0,0,0,0,0,0,0,0,0,0,0,0,0,0,0,0,0,0,0,0,0,0,0,0,0,0,0,0,0,0,0,0,0,0,0,0,0,0,0,0,0,0,0,0,0,0,0,0,13,0.1697652,0,39.85911,0.2403138,0.005954446,9.379408,0.9882956,1,9.408744
60.529,20.50525,1.649574,3.489796,1.370911,0.7300262,-0.7966766,90,90,0.157573,3.716124,20.50525,0.06061626,134.4289,1.232265,-0.1354715,0.03916733,-0.3759479,-14.11641,269.2408,126.8313,-3.698936,3.32753,23.52941,1.02,1339.5,47,33,0,20,20,0.6387051,16.10979,0.05,4.972994,252.2379,343.9,4.998707,5.702235,217,50,3417,0.97,2.748904,2.386719,2.663016,2.394531,0,0,0,0,0,0,0,0,0,0,0,0,13.32,0,0,0,0,0,0,0,0,0,76,53,0,0,0,0,0,0,0,0,0,0,0,0,0,0,0,0,0,0,0,0,0,0,0,0,0,0,0,0,0,0,0,0,0,0,0,0,0,0,0,0,0,0,0,0,0,0,0,0,0,0,0,0,0,0,0,13,0.1697652,0,39.85911,0.2403138,0.005954446,9.379408,0.9882956,1,9.408744
61.524,20.50525,1.649574,3.489796,-3.121368,-2.684204,-1.636978,90,90,0.157573,3.716124,20.50525,0.06061626,134.4289,1.232265,-0.05604093,-0.4191855,-1.562102,-14.38134,269.1956,127.2315,-3.580818,3.319443,23.52941,1.02,1339.5,47,33,0,20,20,0.6387051,16.10979,0.05,4.972994,252.2379,343.8,4.998707,5.702235,217,50,3417,0.97,2.748904,2.386719,2.663016,2.394531,0,0,0,0,0,0,0,0,0,0,0,0,13.32,0,0,0,0,0,0,0,0,0,76,53,0,0,0,0,0,0,0,0,0,0,0,0,0,0,0,0,0,0,0,0,0,0,0,0,0,0,0,0,0,0,0,0,0,0,0,0,0,0,0,0,0,0,0,0,0,0,0,0,0,0,0,0,0,0,0,13,0.1697652,0,39.85911,0.2403138,0.005954446,9.379408,0.9882956,1,9.408744
62.523,20.50525,0.7706393,3.4908,-0.229248,2.271439,-1.02092,90,90,3.885781E-16,1.75906,20.50525,0.06162037,62.80177,0.5756828,0.0131064,0.1992371,0.7687353,-14.21796,268.4111,127.2089,-3.248116,3.166901,51.76471,1.02,1322,47,33,0,27.45098,27.05882,0.7085007,15.89933,0.05,2.323257,240.4806,343.8,2.335269,5.699887,236,50,3417,0.97,1.647976,1.445313,1.642608,1.46875,0,0,0,0,0,0,0,0,0,0,0,0,12.96,0,0,0,0,0,0,0,0,0,80,51,0,0,0,0,0,0,0,0,0,0,0,0,0,0,0,0,0,0,0,0,0,0,0,0,0,0,0,0,0,0,0,0,0,0,0,0,0,0,0,0,0,0,0,0,0,0,0,0,0,0,0,0,0,0,0,13,0.3294883,0,23.89565,0.2562384,0.006053082,8.942215,1.026088,1,9.408744
63.523,21.12662,1.74086,3.493716,-0.891449,3.140549,-1.117676,90,90,0.06174562,3.791563,21.12662,0.06453639,137.6954,1.300457,-0.3360645,-0.3156883,0.2365018,-14.0915,268.0221,127.0441,-2.837303,3.028732,57.64706,1.04,1385.5,47,33,0,29.80392,29.80392,0.7371256,16.98975,0.07,5.248193,232.5782,343.8,5.120172,5.699332,236,50,3417,0.97,1.600152,1.390625,1.594296,1.402344,0,0,0,0,0,0,0,0,0,0,0,0,12.96,0,0,0,0,0,0,0,0,0,80,51,0,0,0,0,0,0,0,0,0,0,0,0,0,0,0,0,0,0,0,0,0,0,0,0,0,0,0,0,0,0,0,0,0,0,0,0,0,0,0,0,0,0,0,0,0,0,0,0,0,0,0,0,0,0,0,13,0.3068847,0,23.2022,0.2774825,0.006339527,8.648367,1.054802,1,9.408744
64.522,21.12662,1.74086,3.493716,-0.2398987,-0.3563538,0.4476776,90,90,0.06174562,3.791563,21.12662,0.06453639,137.6954,1.300457,-0.2478375,0.4154759,-0.8812662,-13.63803,267.4457,125.6551,-1.785645,1.579346,57.64706,1.04,1385.5,47,33,0,29.80392,29.80392,0.7371256,16.98975,0.07,5.248193,232.5782,343.9,5.120172,5.699332,236,50,3417,0.97,1.600152,1.390625,1.594296,1.402344,0,0,0,0,0,0,0,0,0,0,0,0,12.96,0,0,0,0,0,0,0,0,0,80,51,0,0,0,0,0,0,0,0,0,0,0,0,0,0,0,0,0,0,0,0,0,0,0,0,0,0,0,0,0,0,0,0,0,0,0,0,0,0,0,0,0,0,0,0,0,0,0,0,0,0,0,0,0,0,0,13,0.3068847,0,23.2022,0.2774825,0.006339527,8.648367,1.054802,1,9.408744
65.531,21.74799,2.051733,3.496396,-0.6656952,0.08981323,-0.04904175,90,90,0.141421,4.329579,21.74799,0.06721594,157.6476,1.532685,-0.09947237,-0.3593535,-0.8817762,-13.6986,266.8504,126.4527,-1.862099,2.572662,61.96078,1.06,1430,47,33,0,29.80392,30.19608,0.7443548,17.87265,0.09,6.185386,228.2917,343.9,5.862088,5.699465,236,50,3417,0.97,1.522072,1.273438,1.517192,1.277344,0,0,0,0,0,0,0,0,0,0,0,0,12.96,0,0,0,0,0,0,0,0,0,80,51,0,0,0,0,0,0,0,0,0,0,0,0,0,0,0,0,0,0,0,0,0,0,0,0,0,0,0,0,0,0,0,0,0,0,0,0,0,0,0,0,0,0,0,0,0,0,0,0,0,0,0,0,0,0,0,13,0.3866329,0,22.07004,0.2944301,0.006602745,8.488972,1.089952,1,9.408744
66.521,21.74799,2.051733,3.496396,-0.648819,0.6785278,-0.6971893,90,90,0.141421,4.329579,21.74799,0.06721594,157.6476,1.532685,0.1612562,0.1904993,-0.8401048,-13.61248,267.4104,126.1404,-2.442902,2.792953,61.96078,1.06,1430,47,33,0,29.80392,30.19608,0.7443548,17.87265,0.09,6.185386,228.2917,343.9,5.862088,5.699465,236,50,3417,0.97,1.522072,1.273438,1.517192,1.277344,0,0,0,0,0,0,0,0,0,0,0,0,12.96,0,0,0,0,0,0,0,0,0,80,51,0,0,0,0,0,0,0,0,0,0,0,0,0,0,0,0,0,0,0,0,0,0,0,0,0,0,0,0,0,0,0,0,0,0,0,0,0,0,0,0,0,0,0,0,0,0,0,0,0,0,0,0,0,0,0,13,0.3866329,0,22.07004,0.2944301,0.006602745,8.488972,1.089952,1,9.408744
67.520,22.99073,2.482735,3.50028,-2.466797,-0.17099,-1.185043,90,90,0.2120616,4.96316,22.99073,0.07110034,180.4527,1.854652,-0.1840879,-0.6833876,-1.774453,-13.94172,266.5639,126.4948,-1.812836,2.591492,71.76471,1.05,1509.5,47,33,0,32.15686,32.54902,0.8119333,18.68829,0.08,7.484735,225.0044,343.8,6.710089,5.700408,236,50,3417,0.97,1.39568,1.054688,1.397144,1.066406,0,0,0,0,0,0,0,0,0,0,0,0,12.96,0,0,0,0,0,0,0,0,0,80,51,0,0,0,0,0,0,0,0,0,0,0,0,0,0,0,0,0,0,0,0,0,0,0,0,0,0,0,0,0,0,0,0,0,0,0,0,0,0,0,0,0,0,0,0,0,0,0,0,0,0,0,0,0,0,0,13,0.4565476,0,20.23736,0.3159954,0.006984316,8.366735,1.118751,1,9.408744
68.541,22.99073,2.482735,3.50028,2.332886,4.161972,0.6500702,90,90,0.2120616,4.96316,22.99073,0.07110034,180.4527,1.854652,-0.09661133,-0.02138327,0.3773423,-14.14417,267.023,126.8262,-2.682686,3.010468,71.76471,1.05,1509.5,47,33,0,32.15686,32.54902,0.8119333,18.68829,0.08,7.484735,225.0044,343.7,6.710089,5.700408,236,50,3417,0.97,1.39568,1.054688,1.397144,1.066406,0,0,0,0,0,0,0,0,0,0,0,0,12.96,0,0,0,0,0,0,0,0,0,80,51,0,0,0,0,0,0,0,0,0,0,0,0,0,0,0,0,0,0,0,0,0,0,0,0,0,0,0,0,0,0,0,0,0,0,0,0,0,0,0,0,0,0,0,0,0,0,0,0,0,0,0,0,0,0,0,13,0.4565476,0,20.23736,0.3159954,0.006984316,8.366735,1.118751,1,9.408744
69.524,24.23348,3.167541,3.504396,-1.067291,-1.330536,-0.8256226,90,90,0.2918675,5.907514,24.23348,0.07521625,218.4199,2.366216,0.4053648,0.4671696,-1.990476,-14.10803,267.2385,126.2816,-2.582512,2.636261,68.23529,1.11,1618,47,33,0,31.76471,31.76471,0.8472687,21.17623,0.14,9.549229,224.617,343.7,8.121894,5.702399,236,50,3417,0.97,1.467416,1.195313,1.461072,1.1875,0,0,0,0,0,0,0,0,0,0,0,0,12.96,0,0,0,0,0,0,0,0,0,80,51,0,0,0,0,0,0,0,0,0,0,0,0,0,0,0,0,0,0,0,0,0,0,0,0,0,0,0,0,0,0,0,0,0,0,0,0,0,0,0,0,0,0,0,0,0,0,0,0,0,0,0,0,0,0,0,13,0.3943685,0,21.27753,0.3348644,0.007388629,8.352331,1.150588,1,9.408744
70.521,24.23348,3.167541,3.504396,-0.9574585,0.008010864,-1.247726,90,90,0.2918675,5.907514,24.23348,0.07521625,218.4199,2.366216,1.162177,-0.2837328,-0.8682311,-13.8041,266.221,126.2939,-2.468071,2.848618,68.23529,1.11,1618,47,33,0,31.76471,31.76471,0.8472687,21.17623,0.14,9.549229,224.617,343.6,8.121894,5.702399,236,50,3417,0.97,1.467416,1.195313,1.461072,1.1875,0,0,0,0,0,0,0,0,0,0,0,0,12.96,0,0,0,0,0,0,0,0,0,80,51,0,0,0,0,0,0,0,0,0,0,0,0,0,0,0,0,0,0,0,0,0,0,0,0,0,0,0,0,0,0,0,0,0,0,0,0,0,0,0,0,0,0,0,0,0,0,0,0,0,0,0,0,0,0,0,13,0.3943685,0,21.27753,0.3348644,0.007388629,8.352331,1.150588,1,9.408744
71.524,25.47622,2.368666,3.508008,2.512985,2.460037,-0.1585846,90,90,0.2961167,6.393269,25.47622,0.07882769,155.3655,1.76944,-0.04386183,-0.3281194,0.5579023,-13.25908,264.6363,126.7198,-1.769066,3.662186,41.17647,1.08,1118,47,33,0,15.29412,14.90196,0.6216688,14.23681,0.11,7.140848,220.1781,343.5,5.777229,5.702497,236,50,3417,0.97,4.508144,2.941406,2.682536,2.433594,0,0,0,0,0,0,0,0,0,0,0,0,12.96,0,0,0,0,0,0,0,0,0,80,51,0,0,0,0,0,0,0,0,0,0,0,0,0,0,0,0,0,0,0,0,0,0,0,0,0,0,0,0,0,0,0,0,0,0,0,0,0,0,0,0,0,0,0,0,0,0,0,0,0,0,0,0,0,0,0,13,0.3190042,0,65.36809,0.3580178,0.007743388,8.187272,1.18216,1,9.408744
72.541,25.47622,2.368666,3.508008,-1.528656,2.034851,-0.4761963,90,90,0.2961167,6.393269,25.47622,0.07882769,155.3655,1.76944,-0.4637355,0.5633775,-1.118951,-13.97357,266.8156,127.4659,-2.852966,3.883774,41.17647,1.08,1118,47,33,0,15.29412,14.90196,0.6216688,14.23681,0.11,7.140848,220.1781,343.6,5.777229,5.702497,236,50,3417,0.97,4.508144,2.941406,2.682536,2.433594,0,0,0,0,0,0,0,0,0,0,0,0,12.96,0,0,0,0,0,0,0,0,0,80,51,0,0,0,0,0,0,0,0,0,0,0,0,0,0,0,0,0,0,0,0,0,0,0,0,0,0,0,0,0,0,0,0,0,0,0,0,0,0,0,0,0,0,0,0,0,0,0,0,0,0,0,0,0,0,0,13,0.3190042,0,65.36809,0.3580178,0.007743388,8.187272,1.18216,1,9.408744
73.565,22.36936,0.8460504,3.509105,0.925766,4.630127,0.1985474,90,90,-0.2621471,2.28972,25.47622,0.07992516,63.20164,0.6320164,-0.3947619,0.03922055,-0.1825059,-14.48111,266.6395,127.1381,-2.513748,2.806244,17.2549,1.02,1115,42,33,0,37.2549,37.2549,0.5325351,13.40979,0.05,2.5506,212.8885,343.5,2.350138,5.699943,236,50,3417,0.97,1.421056,1.089844,1.403976,1.0625,0,0,0,0,0,0,0,0,0,0,0,0,12.96,0,0,0,0,0,0,0,0,0,80,51,0,0,0,0,0,0,0,0,0,0,0,0,0,0,0,0,0,0,0,0,0,0,0,0,0,0,0,0,0,0,0,0,0,0,0,0,0,0,0,0,0,0,0,0,0,0,0,0,0,0,0,0,0,0,0,13,0.1272035,0,20.60531,0.375432,0.007851195,7.916211,1.216771,1,9.408744
74.520,22.36936,0.8460504,3.509105,-1.413727,-4.020889,-0.6423645,90,90,-0.2621471,2.28972,25.47622,0.07992516,63.20164,0.6320164,-0.2367085,0.5256497,0.005599102,-14.13029,266.2,128.6604,-1.704735,2.725998,17.2549,1.02,1115,42,33,0,37.2549,37.2549,0.5325351,13.40979,0.05,2.5506,212.8885,343.3,2.350138,5.699943,236,50,3417,0.97,1.421056,1.089844,1.403976,1.0625,0,0,0,0,0,0,0,0,0,0,0,0,12.96,0,0,0,0,0,0,0,0,0,80,51,0,0,0,0,0,0,0,0,0,0,0,0,0,0,0,0,0,0,0,0,0,0,0,0,0,0,0,0,0,0,0,0,0,0,0,0,0,0,0,0,0,0,0,0,0,0,0,0,0,0,0,0,0,0,0,13,0.1272035,0,20.60531,0.375432,0.007851195,7.916211,1.216771,1,9.408744
75.523,23.6121,1.145927,3.510912,2.070831,5.161957,-3.087311,90,90,-0.2674157,2.16392,25.47622,0.08173168,81.0976,0.8560303,-0.2949848,0.8595302,-0.0497121,-14.49561,266.7294,127.5698,-2.351738,2.988022,89.01961,1.44,1598,42,33,0,43.52941,43.92157,1.698933,27.56275,0.47,3.454642,205.4841,343.2,3.015595,5.697322,236,50,3417,0.97,1.291248,0.8554688,1.291248,0.8476563,0,0,0,0,0,0,0,0,0,0,0,0,12.96,0,0,0,0,0,0,0,0,0,80,51,0,0,0,0,0,0,0,0,0,0,0,0,0,0,0,0,0,0,0,0,0,0,0,0,0,0,0,0,0,0,0,0,0,0,0,0,0,0,0,0,0,0,0,0,0,0,0,0,0,0,0,0,0,0,0,13,0.09201624,0,18.7231,0.3977519,0.008028652,7.640877,1.246522,1,9.408744
76.523,23.6121,1.145927,3.510912,4.356812,-3.372574,-2.411972,90,90,-0.2674157,2.16392,25.47622,0.08173168,81.0976,0.8560303,0.3410169,-0.05936877,0.1884297,-14.32014,267.8317,128.2973,-3.227135,4.013779,89.01961,1.44,1598,42,33,0,43.52941,43.92157,1.698933,27.56275,0.47,3.454642,205.4841,343.1,3.015595,5.697322,236,50,3417,0.97,1.291248,0.8554688,1.291248,0.8476563,0,0,0,0,0,0,0,0,0,0,0,0,12.96,0,0,0,0,0,0,0,0,0,80,51,0,0,0,0,0,0,0,0,0,0,0,0,0,0,0,0,0,0,0,0,0,0,0,0,0,0,0,0,0,0,0,0,0,0,0,0,0,0,0,0,0,0,0,0,0,0,0,0,0,0,0,0,0,0,0,13,0.09201624,0,18.7231,0.3977519,0.008028652,7.640877,1.246522,1,9.408744
77.524,26.71896,6.803032,3.519904,2.55423,-1.47847,-1.191711,90,90,0.5270318,11.25174,26.71896,0.09072444,425.4698,5.082,-0.7187023,-0.659587,3.114753,-14.62881,267.2519,128.4102,-2.892624,3.616806,67.45098,1.38,1824.5,42,33,0,40.39216,37.64706,1.364102,30.15826,0.41,20.5092,216.673,343.3,15.82099,5.706694,236,50,3417,0.97,1.540616,1.324219,1.54208,1.316406,0,0,0,0,0,0,0,0,0,0,0,0,12.96,0,0,0,0,0,0,0,0,0,80,51,0,0,0,0,0,0,0,0,0,0,0,0,0,0,0,0,0,0,0,0,0,0,0,0,0,0,0,0,0,0,0,0,0,0,0,0,0,0,0,0,0,0,0,0,0,0,0,0,0,0,0,0,0,0,0,13,0.1396347,0,22.33893,0.418716,0.008912028,8.056934,1.27637,1,9.408744
78.523,29.20445,2.983065,3.523895,-4.272827,-1.471756,-1.641296,90,90,0.7039471,6.89256,29.20445,0.09471449,170.6866,2.228409,-0.1095938,0.3359478,0.8534343,-14.41089,267.6023,128.3269,-3.171837,4.528442,77.64706,1.22,1306,42,33,0,35.68628,35.29412,0.6914127,19.08474,0.25,8.993087,214.1682,343.3,6.346942,5.707308,236,50,3417,0.97,1.445456,1.152344,1.433744,1.128906,0,0,0,0,0,0,0,0,0,0,0,0,12.96,0,0,0,0,0,0,0,0,0,80,51,0,0,0,0,0,0,0,0,0,0,0,0,0,0,0,0,0,0,0,0,0,0,0,0,0,0,0,0,0,0,0,0,0,0,0,0,0,0,0,0,0,0,0,0,0,0,0,0,0,0,0,0,0,0,0,13,0.2012911,0,20.95911,0.4422434,0.009303978,7.963795,1.305878,1,9.408744
79.514,29.20445,2.983065,3.523895,0.5000763,-1.057922,-0.2613373,90,90,0.7039471,6.89256,29.20445,0.09471449,170.6866,2.228409,0.03565366,0.2378359,-0.2291481,-14.35943,268.6172,128.6893,-4.052727,4.399597,77.64706,1.22,1306,42,33,0,35.68628,35.29412,0.6914127,19.08474,0.25,8.993087,214.1682,343.3,6.346942,5.707308,236,50,3417,0.97,1.445456,1.152344,1.433744,1.128906,0,0,0,0,0,0,0,0,0,0,0,0,12.96,0,0,0,0,0,0,0,0,0,80,51,0,0,0,0,0,0,0,0,0,0,0,0,0,0,0,0,0,0,0,0,0,0,0,0,0,0,0,0,0,0,0,0,0,0,0,0,0,0,0,0,0,0,0,0,0,0,0,0,0,0,0,0,0,0,0,13,0.2012911,0,20.95911,0.4422434,0.009303978,7.963795,1.305878,1,9.408744
80.517,29.20445,2.983065,3.523895,-0.01460266,2.313065,-0.5461273,90,90,0.7039471,6.89256,29.20445,0.09471449,170.6866,2.228409,0.1786708,-0.1337822,-0.08403004,-14.76332,266.8625,129.0452,-3.144234,3.98056,77.64706,1.22,1306,42,33,0,35.68628,35.29412,0.6914127,19.08474,0.25,8.993087,214.1682,343.3,6.346942,5.707308,236,50,3417,0.97,1.445456,1.152344,1.433744,1.128906,0,0,0,0,0,0,0,0,0,0,0,0,12.96,0,0,0,0,0,0,0,0,0,80,51,0,0,0,0,0,0,0,0,0,0,0,0,0,0,0,0,0,0,0,0,0,0,0,0,0,0,0,0,0,0,0,0,0,0,0,0,0,0,0,0,0,0,0,0,0,0,0,0,0,0,0,0,0,0,0,13,0.2012911,0,20.95911,0.4422434,0.009303978,7.963795,1.305878,1,9.408744
81.519,29.20445,2.983065,3.523895,0.04403687,-2.700577,-0.7207031,90,90,0.7039471,6.89256,29.20445,0.09471449,170.6866,2.228409,0.01117393,-0.37297,-1.308845,-14.65383,266.5588,128.7195,-3.037682,4.204254,77.64706,1.22,1306,42,33,0,35.68628,35.29412,0.6914127,19.08474,0.25,8.993087,214.1682,343.3,6.346942,5.707308,236,50,3417,0.97,1.445456,1.152344,1.433744,1.128906,0,0,0,0,0,0,0,0,0,0,0,0,12.96,0,0,0,0,0,0,0,0,0,80,51,0,0,0,0,0,0,0,0,0,0,0,0,0,0,0,0,0,0,0,0,0,0,0,0,0,0,0,0,0,0,0,0,0,0,0,0,0,0,0,0,0,0,0,0,0,0,0,0,0,0,0,0,0,0,0,13,0.2012911,0,20.95911,0.4422434,0.009303978,7.963795,1.305878,1,9.408744
82.524,30.44719,3.093094,3.527982,0.4298706,-0.5299225,-1.065826,90,90,0.4653127,6.939559,30.44719,0.09880234,169.7586,2.310603,0.1727172,-0.3730901,0.1632258,-14.33325,266.8765,128.7671,-3.032074,4.391647,66.66666,1.12,1345,46,33,0,29.80392,29.41176,0.8700249,18.04362,0.15,9.324793,211.8764,343.4,6.312432,5.707943,256,50,3418,0.97,1.535248,1.292969,1.535248,1.316406,0,0,0,0,0,0,0,0,0,0,0,0,12.96,0,0,0,0,0,0,0,0,0,86,50,0,0,0,0,0,0,0,0,0,0,0,0,0,0,0,0,0,0,0,0,0,0,0,0,0,0,0,0,0,0,0,0,0,0,0,0,0,0,0,0,0,0,0,0,0,0,0,0,0,0,0,0,0,0,0,13,0.2326972,0,22.2611,0.4663206,0.009705534,7.878574,1.359914,1,9.408744
83.524,31.06856,2.23226,3.533384,-2.858047,-0.9232178,-0.7635956,90,90,0.1998963,4.927621,31.06856,0.104204,120.0631,1.667542,0.4107806,-0.09218812,0.3533378,-14.3843,266.8207,129.2028,-2.849136,4.527557,52.54902,1.03,1367,46,33,0,22.35294,21.96078,0.7191144,16.65373,0.06,6.729624,203.7933,343.5,4.464517,5.705511,256,50,3418,0.97,2.247728,2.085938,2.172576,2.058594,0,0,0,0,0,0,0,0,0,0,0,0,12.96,0,0,0,0,0,0,0,0,0,86,50,0,0,0,0,0,0,0,0,0,0,0,0,0,0,0,0,0,0,0,0,0,0,0,0,0,0,0,0,0,0,0,0,0,0,0,0,0,0,0,0,0,0,0,0,0,0,0,0,0,0,0,0,0,0,0,13,0.2289212,0,32.59206,0.5113221,0.01023615,7.578005,1.38902,1,9.408744
84.521,31.06856,2.23226,3.533384,-1.694199,-2.050293,-0.4431763,90,90,0.1998963,4.927621,31.06856,0.104204,120.0631,1.667542,-0.3249648,-0.4711153,-0.3979185,-14.12552,266.3854,129.5569,-2.009811,5.440613,52.54902,1.03,1367,46,33,0,22.35294,21.96078,0.7191144,16.65373,0.06,6.729624,203.7933,343.6,4.464517,5.705511,256,50,3418,0.97,2.247728,2.085938,2.172576,2.058594,0,0,0,0,0,0,0,0,0,0,0,0,12.96,0,0,0,0,0,0,0,0,0,86,50,0,0,0,0,0,0,0,0,0,0,0,0,0,0,0,0,0,0,0,0,0,0,0,0,0,0,0,0,0,0,0,0,0,0,0,0,0,0,0,0,0,0,0,0,0,0,0,0,0,0,0,0,0,0,0,13,0.2289212,0,32.59206,0.5113221,0.01023615,7.578005,1.38902,1,9.408744
85.515,31.06856,1.545755,3.535402,-0.9755859,1.178757,-0.3590393,90,90,0.04286552,3.496599,31.06856,0.1062218,83.1391,1.15471,-0.4042623,-0.2035827,-0.9242005,-14.21582,266.469,128.9142,-2.943459,3.620163,19.21569,1.01,1334,46,33,0,20.39216,20.39216,0.6215726,15.93613,0.04,4.660009,198.3341,343.7,3.091508,5.702765,256,50,3418,0.97,3.664392,2.746094,3.587288,2.773438,0,0,0,0,0,0,0,0,0,0,0,0,12.96,0,0,0,0,0,0,0,0,0,86,50,0,0,0,0,0,0,0,0,0,0,0,0,0,0,0,0,0,0,0,0,0,0,0,0,0,0,0,0,0,0,0,0,0,0,0,0,0,0,0,0,0,0,0,0,0,0,0,0,0,0,0,0,0,0,0,13,0.2129861,0,53.13368,0.5355701,0.01043436,7.375008,1.419175,1,9.408744
86.523,31.06856,1.545755,3.535402,0.007522583,1.554962,-1.09613,90,90,0.04286552,3.496599,31.06856,0.1062218,83.1391,1.15471,0.1840211,-0.4851083,-0.01484504,-14.1128,266.817,129.1618,-3.204796,3.942993,19.21569,1.01,1334,46,33,0,20.39216,20.39216,0.6215726,15.93613,0.04,4.660009,198.3341,343.8,3.091508,5.702765,256,50,3418,0.97,3.664392,2.746094,3.587288,2.773438,0,0,0,0,0,0,0,0,0,0,0,0,12.96,0,0,0,0,0,0,0,0,0,86,50,0,0,0,0,0,0,0,0,0,0,0,0,0,0,0,0,0,0,0,0,0,0,0,0,0,0,0,0,0,0,0,0,0,0,0,0,0,0,0,0,0,0,0,0,0,0,0,0,0,0,0,0,0,0,0,13,0.2129861,0,53.13368,0.5355701,0.01043436,7.375008,1.419175,1,9.408744
87.519,29.82582,0.5854862,3.536187,2.418655,-0.2209778,0.4499054,90,90,-0.1547518,1.352285,31.06856,0.1070072,32.80273,0.4373698,-0.8154611,0.725814,-0.1766028,-14.21968,266.3338,129.0945,-3.210052,4.190643,31.37255,1.03,1306.5,46,33,0,27.05882,26.66667,0.6597648,15.91668,0.06,1.765073,191.2539,344,1.219762,5.698115,256,50,3418,0.97,1.937848,1.785156,1.935408,1.828125,0,0,0,0,0,0,0,0,0,0,0,0,12.96,0,0,0,0,0,0,0,0,0,86,50,0,0,0,0,0,0,0,0,0,0,0,0,0,0,0,0,0,0,0,0,0,0,0,0,0,0,0,0,0,0,0,0,0,0,0,0,0,0,0,0,0,0,0,0,0,0,0,0,0,0,0,0,0,0,0,13,0.1555585,0,28.0988,0.5595034,0.01051151,7.111732,1.44802,1,9.408744
88.515,29.82582,0.5854862,3.536187,0.3366241,0.5763092,-0.2515411,90,90,-0.1547518,1.352285,31.06856,0.1070072,32.80273,0.4373698,0.3347439,0.6786851,0.1971788,-14.04405,266.4207,128.6997,-2.944588,3.776306,31.37255,1.03,1306.5,46,33,0,27.05882,26.66667,0.6597648,15.91668,0.06,1.765073,191.2539,344.1,1.219762,5.698115,256,50,3418,0.97,1.937848,1.785156,1.935408,1.828125,0,0,0,0,0,0,0,0,0,0,0,0,12.96,0,0,0,0,0,0,0,0,0,86,50,0,0,0,0,0,0,0,0,0,0,0,0,0,0,0,0,0,0,0,0,0,0,0,0,0,0,0,0,0,0,0,0,0,0,0,0,0,0,0,0,0,0,0,0,0,0,0,0,0,0,0,0,0,0,0,13,0.1555585,0,28.0988,0.5595034,0.01051151,7.111732,1.44802,1,9.408744
89.523,29.82582,1.185458,3.537727,-1.576096,-3.039948,-0.04507446,90,90,-0.1547518,2.692685,31.06856,0.1085469,66.41703,0.8855604,-0.1390087,-0.1113668,-0.5856484,-13.97871,265.5881,129.1643,-2.539314,4.465927,60,1.07,1328.5,46,33,0,30.98039,31.37255,0.835432,16.81323,0.1,3.573815,186.2768,344.2,2.469702,5.694868,256,50,3418,0.97,1.482544,1.207031,1.472784,1.214844,0,0,0,0,0,0,0,0,0,0,0,0,12.96,0,0,0,0,0,0,0,0,0,86,50,0,0,0,0,0,0,0,0,0,0,0,0,0,0,0,0,0,0,0,0,0,0,0,0,0,0,0,0,0,0,0,0,0,0,0,0,0,0,0,0,0,0,0,0,0,0,0,0,0,0,0,0,0,0,0,13,0.1236622,0,21.49689,0.5827185,0.01066276,6.926658,1.483105,1,9.408744
90.518,29.82582,1.185458,3.537727,-2.708237,-2.047791,-0.9999847,90,90,-0.1547518,2.692685,31.06856,0.1085469,66.41703,0.8855604,-0.02650613,-0.619742,-0.9275743,-14.06125,264.9454,129.0691,-2.298569,4.495819,60,1.07,1328.5,46,33,0,30.98039,31.37255,0.835432,16.81323,0.1,3.573815,186.2768,344.3,2.469702,5.694868,256,50,3418,0.97,1.482544,1.207031,1.472784,1.214844,0,0,0,0,0,0,0,0,0,0,0,0,12.96,0,0,0,0,0,0,0,0,0,86,50,0,0,0,0,0,0,0,0,0,0,0,0,0,0,0,0,0,0,0,0,0,0,0,0,0,0,0,0,0,0,0,0,0,0,0,0,0,0,0,0,0,0,0,0,0,0,0,0,0,0,0,0,0,0,0,13,0.1236622,0,21.49689,0.5827185,0.01066276,6.926658,1.483105,1,9.408744
91.521,31.06856,2.198698,3.541182,5.005416,6.135651,0.2344666,90,90,0.1321775,4.920119,31.06856,0.1120019,118.2579,1.642471,0.3265888,0.4419174,-1.449884,-13.81495,266.1426,128.6982,-3.129379,4.941727,61.17647,1.09,1348.5,46,33,0,27.84314,26.27451,0.7967774,17.38534,0.12,6.628445,183.0375,344.4,4.397393,5.693235,256,50,3418,0.97,1.602104,1.398438,1.58356,1.398438,0,0,0,0,0,0,0,0,0,0,0,0,12.96,0,0,0,0,0,0,0,0,0,86,50,0,0,0,0,0,0,0,0,0,0,0,0,0,0,0,0,0,0,0,0,0,0,0,0,0,0,0,0,0,0,0,0,0,0,0,0,0,0,0,0,0,0,0,0,0,0,0,0,0,0,0,0,0,0,0,13,0.1227707,0,23.23051,0.6119067,0.01100215,6.806207,1.512051,1,9.408744
92.514,31.06856,1.899808,3.543655,-0.6902924,-4.992233,-0.4714508,90,90,0.1321775,4.294272,31.06856,0.1144752,102.182,1.419194,1.127582,0.2649044,-0.8969342,-14.33926,265.5631,130.1199,-2.779472,4.949295,27.45098,1.03,1335,46,33,0,20,19.60784,0.6652099,16.26388,0.06,5.727378,180.0008,344.3,3.799614,5.69129,256,50,3418,0.97,3.405264,2.65625,3.414048,2.699219,0,0,0,0,0,0,0,0,0,0,0,0,12.96,0,0,0,0,0,0,0,0,0,86,50,0,0,0,0,0,0,0,0,0,0,0,0,0,0,0,0,0,0,0,0,0,0,0,0,0,0,0,0,0,0,0,0,0,0,0,0,0,0,0,0,0,0,0,0,0,0,0,0,0,0,0,0,0,0,0,13,0.2025272,0,49.37633,0.6359704,0.0112451,6.693287,1.541847,1,9.408744
93.519,31.06856,1.899808,3.543655,-0.8730316,-1.294052,-1.451538,90,90,0.1321775,4.294272,31.06856,0.1144752,102.182,1.419194,-0.5246947,0.7164599,4.954243,-13.61427,265.5028,129.1253,-4.214417,4.404892,27.45098,1.03,1335,46,33,0,20,19.60784,0.6652099,16.26388,0.06,5.727378,180.0008,344.4,3.799614,5.69129,256,50,3418,0.97,3.405264,2.65625,3.414048,2.699219,0,0,0,0,0,0,0,0,0,0,0,0,12.96,0,0,0,0,0,0,0,0,0,86,50,0,0,0,0,0,0,0,0,0,0,0,0,0,0,0,0,0,0,0,0,0,0,0,0,0,0,0,0,0,0,0,0,0,0,0,0,0,0,0,0,0,0,0,0,0,0,0,0,0,0,0,0,0,0,0,13,0.2025272,0,49.37633,0.6359704,0.0112451,6.693287,1.541847,1,9.408744
94.520,29.82582,0.9304144,3.544902,1.602692,0.9821929,-0.1203613,90,90,-0.1540145,2.121356,31.06856,0.115722,52.12785,0.695038,0.2833155,0.6400387,-0.626432,-13.99809,265.7311,129.1689,-3.517197,4.707352,43.52941,1.02,1323.5,46,33,0,23.13725,23.52941,0.7333673,15.96724,0.05,2.804933,175.3315,344.5,1.938362,5.687386,256,50,3418,0.97,1.954928,1.820313,1.967616,1.859375,0,0,0,0,0,0,0,0,0,0,0,0,12.96,0,0,0,0,0,0,0,0,0,86,50,0,0,0,0,0,0,0,0,0,0,0,0,0,0,0,0,0,0,0,0,0,0,0,0,0,0,0,0,0,0,0,0,0,0,0,0,0,0,0,0,0,0,0,0,0,0,0,0,0,0,0,0,0,0,0,13,0.1454509,0,28.34646,0.6600181,0.01136758,6.519662,1.570961,1,9.408744
95.517,29.82582,0.9304144,3.544902,6.087601,4.854218,0.6367798,90,90,-0.1540145,2.121356,31.06856,0.115722,52.12785,0.695038,0.1845456,-0.2038704,-0.6531827,-13.92664,265.3748,129.3077,-2.99231,4.104187,43.52941,1.02,1323.5,46,33,0,23.13725,23.52941,0.7333673,15.96724,0.05,2.804933,175.3315,344.8,1.938362,5.687386,256,50,3418,0.97,1.954928,1.820313,1.967616,1.859375,0,0,0,0,0,0,0,0,0,0,0,0,12.96,0,0,0,0,0,0,0,0,0,86,50,0,0,0,0,0,0,0,0,0,0,0,0,0,0,0,0,0,0,0,0,0,0,0,0,0,0,0,0,0,0,0,0,0,0,0,0,0,0,0,0,0,0,0,0,0,0,0,0,0,0,0,0,0,0,0,13,0.1454509,0,28.34646,0.6600181,0.01136758,6.519662,1.570961,1,9.408744
96.515,30.44719,1.42186,3.546747,2.314835,-0.8040466,-0.5481262,90,90,-0.074327,3.235746,31.06856,0.1175674,78.03609,1.062158,0.2854553,-0.1994933,-2.136192,-13.89563,265.7314,129.7986,-3.081078,4.168976,48.23529,1.04,1326,46,33,0,22.7451,21.96078,0.7129097,16.31108,0.07,4.286502,171.9473,344.8,2.901754,5.684528,256,50,3418,0.97,2.34972,2.148438,2.216008,2.105469,0,0,0,0,0,0,0,0,0,0,0,0,12.96,0,0,0,0,0,0,0,0,0,86,50,0,0,0,0,0,0,0,0,0,0,0,0,0,0,0,0,0,0,0,0,0,0,0,0,0,0,0,0,0,0,0,0,0,0,0,0,0,0,0,0,0,0,0,0,0,0,0,0,0,0,0,0,0,0,0,12.9,0.08225539,0,34.07094,0.6837412,0.01154886,6.393819,1.605991,1,9.408744
97.523,30.44719,1.42186,3.546747,1.994827,3.576935,-0.658493,90,90,-0.074327,3.235746,31.06856,0.1175674,78.03609,1.062158,-0.06585841,-0.0835242,-0.7160973,-13.56919,265.6737,129.7684,-3.87925,4.499222,48.23529,1.04,1326,46,33,0,22.7451,21.96078,0.7129097,16.31108,0.07,4.286502,171.9473,344.9,2.901754,5.684528,256,50,3418,0.97,2.34972,2.148438,2.216008,2.105469,0,0,0,0,0,0,0,0,0,0,0,0,12.96,0,0,0,0,0,0,0,0,0,86,50,0,0,0,0,0,0,0,0,0,0,0,0,0,0,0,0,0,0,0,0,0,0,0,0,0,0,0,0,0,0,0,0,0,0,0,0,0,0,0,0,0,0,0,0,0,0,0,0,0,0,0,0,0,0,0,12.9,0.08225539,0,34.07094,0.6837412,0.01154886,6.393819,1.605991,1,9.408744
98.517,29.82582,1.46969,3.549057,4.837341,4.389618,0.5280151,90,90,0.01351695,3.38286,31.06856,0.1198768,82.34155,1.097887,0.5831364,0.423283,-2.297163,-13.52152,265.6079,129.0464,-3.877434,3.978821,40.39216,1.04,1311,46,33,0,23.13725,23.13725,0.6637453,16.12656,0.07,4.430694,168.4308,345,3.061851,5.681376,256,50,3418,0.97,1.937848,1.800781,1.94712,1.84375,0,0,0,0,0,0,0,0,0,0,0,0,12.96,0,0,0,0,0,0,0,0,0,86,50,0,0,0,0,0,0,0,0,0,0,0,0,0,0,0,0,0,0,0,0,0,0,0,0,0,0,0,0,0,0,0,0,0,0,0,0,0,0,0,0,0,0,0,0,0,0,0,0,0,0,0,0,0,0,0,12.9,0.007364879,0,28.0988,0.7117273,0.01177572,6.263061,1.635082,1,9.408744
99.520,29.82582,1.46969,3.549057,6.451752,4.758224,-0.008270264,90,90,0.01351695,3.38286,31.06856,0.1198768,82.34155,1.097887,0.5919633,0.2251454,-0.8731783,-13.5515,265.7237,128.7622,-3.142448,4.10881,40.39216,1.04,1311,46,33,0,23.13725,23.13725,0.6637453,16.12656,0.07,4.430694,168.4308,345.1,3.061851,5.681376,256,50,3418,0.97,1.937848,1.800781,1.94712,1.84375,0,0,0,0,0,0,0,0,0,0,0,0,12.96,0,0,0,0,0,0,0,0,0,86,50,0,0,0,0,0,0,0,0,0,0,0,0,0,0,0,0,0,0,0,0,0,0,0,0,0,0,0,0,0,0,0,0,0,0,0,0,0,0,0,0,0,0,0,0,0,0,0,0,0,0,0,0,0,0,0,12.9,0.007364879,0,28.0988,0.7117273,0.01177572,6.263061,1.635082,1,9.408744
100.522,29.82582,1.38559,3.550857,1.098663,2.725662,-0.07215881,90,90,-0.06617059,3.210095,31.06856,0.1216766,77.62972,1.035063,0.1207684,0.05075641,-0.244955,-13.57129,266.4816,128.8482,-4.29129,4.514725,42.35294,1.06,1302.5,46,33,0,20.39216,20,0.7558214,16.33012,0.09,4.177156,165.5636,345.2,2.886643,5.678586,275,50,3418,0.97,6.31716,3.242188,3.947432,2.882813,0,0,0,0,0,0,0,0,0,0,0,0,12.88,0,0,0,0,0,0,0,0,0,79,49,0,0,0,0,0,0,0,0,0,0,0,0,0,0,0,0,0,0,0,0,0,0,0,0,0,0,0,0,0,0,0,0,0,0,0,0,0,0,0,0,0,0,0,0,0,0,0,0,0,0,0,0,0,0,0,14,-0.02404128,0,91.59882,0.7349237,0.01195252,6.156446,1.672465,1,9.408744
101.522,29.82582,1.38559,3.550857,-0.6303406,-2.297531,-0.1413422,90,90,-0.06617059,3.210095,31.06856,0.1216766,77.62972,1.035063,-0.1360269,-0.07270077,0.9519377,-13.07375,265.2302,129.055,-2.977547,3.921295,42.35294,1.06,1302.5,46,33,0,20.39216,20,0.7558214,16.33012,0.09,4.177156,165.5636,345.3,2.886643,5.678586,275,50,3418,0.97,6.31716,3.242188,3.947432,2.882813,0,0,0,0,0,0,0,0,0,0,0,0,12.88,0,0,0,0,0,0,0,0,0,79,49,0,0,0,0,0,0,0,0,0,0,0,0,0,0,0,0,0,0,0,0,0,0,0,0,0,0,0,0,0,0,0,0,0,0,0,0,0,0,0,0,0,0,0,0,0,0,0,0,0,0,0,0,0,0,0,14,-0.02404128,0,91.59882,0.7349237,0.01195252,6.156446,1.672465,1,9.408744
102.524,28.58307,0.9979056,3.552557,-0.6474304,-5.733215,-0.7169189,90,90,-0.1217906,2.479436,31.06856,0.123377,58.33998,0.7454553,0.1093961,-1.042982,-0.4474006,-13.2655,265.5036,129.6139,-3.061165,3.913361,0,1,1214.5,46,33,0,15.29412,14.90196,0.5225314,14.36492,0.03,3.008399,161.4741,345.5,2.169358,5.674194,275,50,3418,0.97,15.9903,3.875,15.9903,3.863281,0,0,0,0,0,0,0,0,0,0,0,0,12.88,0,0,0,0,0,0,0,0,0,79,49,0,0,0,0,0,0,0,0,0,0,0,0,0,0,0,0,0,0,0,0,0,0,0,0,0,0,0,0,0,0,0,0,0,0,0,0,0,0,0,0,0,0,0,0,0,0,0,0,0,0,0,0,0,0,0,14,-0.0569725,0,231.8593,0.7640671,0.01211955,6.004376,1.701978,1,9.408744
103.547,28.58307,0.9979056,3.552557,1.223831,1.448288,-0.4896393,90,90,-0.1217906,2.479436,31.06856,0.123377,58.33998,0.7454553,0.1148915,-0.5507977,-0.3883458,-13.35565,266.0623,129.6328,-3.218842,4.53624,0,1,1214.5,46,33,0,15.29412,14.90196,0.5225314,14.36492,0.03,3.008399,161.4741,345.5,2.169358,5.674194,275,50,3418,0.97,15.9903,3.875,15.9903,3.863281,0,0,0,0,0,0,0,0,0,0,0,0,12.88,0,0,0,0,0,0,0,0,0,79,49,0,0,0,0,0,0,0,0,0,0,0,0,0,0,0,0,0,0,0,0,0,0,0,0,0,0,0,0,0,0,0,0,0,0,0,0,0,0,0,0,0,0,0,0,0,0,0,0,0,0,0,0,0,0,0,14,-0.0569725,0,231.8593,0.7640671,0.01211955,6.004376,1.701978,1,9.408744
104.521,26.71896,0,3.552557,2.023636,1.301056,0.4060364,90,90,-0.3618048,0,31.06856,0.123377,0,0,0.3260108,-0.274193,0.4524231,-12.88941,266.6514,129.3909,-3.14164,4.285233,0,1.03,1147.5,48,33,0,15.29412,14.90196,1.268368,13.97963,0.06,0,157.2077,345.6,0,5.669145,275,50,3418,0.97,15.9903,3.929688,15.9903,3.988281,0,0,0,0,0,0,0,0,0,0,0,0,12.88,0,0,0,0,0,0,0,0,0,79,49,0,0,0,0,0,0,0,0,0,0,0,0,0,0,0,0,0,0,0,0,0,0,0,0,0,0,0,0,0,0,0,0,0,0,0,0,0,0,0,0,0,0,0,0,0,0,0,0,0,0,0,0,0,0,0,14.6,-0.1049754,0,231.8593,0.7848027,0.01211955,5.845732,1.739498,1,9.408744
105.520,26.71896,0,3.552557,-2.577072,-1.680817,-0.1527252,90,90,-0.3618048,0,31.06856,0.123377,0,0,-0.6283705,-0.3136458,0.234717,-13.37519,267.3716,129.8921,-4.934502,6.621078,0,1.03,1147.5,48,33,0,15.29412,14.90196,1.268368,13.97963,0.06,0,157.2077,345.7,0,5.669145,275,50,3418,0.97,15.9903,3.929688,15.9903,3.988281,0,0,0,0,0,0,0,0,0,0,0,0,12.88,0,0,0,0,0,0,0,0,0,79,49,0,0,0,0,0,0,0,0,0,0,0,0,0,0,0,0,0,0,0,0,0,0,0,0,0,0,0,0,0,0,0,0,0,0,0,0,0,0,0,0,0,0,0,0,0,0,0,0,0,0,0,0,0,0,0,14.6,-0.1049754,0,231.8593,0.7848027,0.01211955,5.845732,1.739498,1,9.408744
106.521,24.85485,0,3.552557,4.661575,0.1047974,0.36203,90,90,-0.4228159,0,31.06856,0.123377,0,0,-1.551131,-0.4403208,0.287871,-13.29186,265.6699,130.0343,-3.168098,5.347137,0,1.01,1265.5,48,33,0,15.29412,14.90196,0.5516042,15.02367,0.04,0,152.2931,345.8,0,5.66299,275,50,3418,0.97,15.9903,3.910156,15.9903,4,0,0,0,0,0,0,0,0,0,0,0,0,12.88,0,0,0,0,0,0,0,0,0,79,49,0,0,0,0,0,0,0,0,0,0,0,0,0,0,0,0,0,0,0,0,0,0,0,0,0,0,0,0,0,0,0,0,0,0,0,0,0,0,0,0,0,0,0,0,0,0,0,0,0,0,0,0,0,0,0,14.6,-0.1105853,0,231.8593,0.8101286,0.01211955,5.662984,1.769139,1,9.408744
107.523,24.85485,0,3.552557,4.283508,1.118866,0.588089,90,90,-0.4228159,0,31.06856,0.123377,0,0,-0.5342334,-0.6702794,-0.1578827,-13.137,266.96,129.6229,-3.959862,5.293442,0,1.01,1265.5,48,33,0,15.29412,14.90196,0.5516042,15.02367,0.04,0,152.2931,345.7,0,5.66299,275,50,3418,0.97,15.9903,3.910156,15.9903,4,0,0,0,0,0,0,0,0,0,0,0,0,12.88,0,0,0,0,0,0,0,0,0,79,49,0,0,0,0,0,0,0,0,0,0,0,0,0,0,0,0,0,0,0,0,0,0,0,0,0,0,0,0,0,0,0,0,0,0,0,0,0,0,0,0,0,0,0,0,0,0,0,0,0,0,0,0,0,0,0,14.6,-0.1105853,0,231.8593,0.8101286,0.01211955,5.662984,1.769139,1,9.408744
108.580,20.50525,0,3.552557,0.08866882,-0.6790924,-0.08946228,90,90,-0.7398946,0,31.06856,0.123377,0,0,-0.2229946,-0.4353951,-0.9985136,-13.52599,267.9015,129.9052,-4.478867,5.397186,81.96078,1.1,1413,48,33,0,38.03922,38.03922,1.394293,18.26954,0.13,0,149.3441,345.8,0,5.659109,275,50,3418,0.97,1.310768,0.8710938,1.299056,0.8476563,0,0,0,0,0,0,0,0,0,0,0,0,12.88,0,0,0,0,0,0,0,0,0,79,49,0,0,0,0,0,0,0,0,0,0,0,0,0,0,0,0,0,0,0,0,0,0,0,0,0,0,0,0,0,0,0,0,0,0,0,0,0,0,0,0,0,0,0,0,0,0,0,0,0,0,0,0,0,0,0,13,-0.2220039,0,19.00614,0.826126,0.01211955,5.553324,1.798825,1,9.408744
109.519,20.50525,0,3.552557,0.1551056,-2.308685,0.1310883,90,90,-0.7398946,0,31.06856,0.123377,0,0,0.3737151,0.2511704,0.2984568,-13.16755,267.8172,129.7207,-4.862343,5.034363,81.96078,1.1,1413,48,33,0,38.03922,38.03922,1.394293,18.26954,0.13,0,149.3441,345.8,0,5.659109,275,50,3418,0.97,1.310768,0.8710938,1.299056,0.8476563,0,0,0,0,0,0,0,0,0,0,0,0,12.88,0,0,0,0,0,0,0,0,0,79,49,0,0,0,0,0,0,0,0,0,0,0,0,0,0,0,0,0,0,0,0,0,0,0,0,0,0,0,0,0,0,0,0,0,0,0,0,0,0,0,0,0,0,0,0,0,0,0,0,0,0,0,0,0,0,0,13,-0.2220039,0,19.00614,0.826126,0.01211955,5.553324,1.798825,1,9.408744
110.517,22.99073,5.29682,3.55994,2.701523,1.600723,0.04643249,90,90,-0.2532869,10.14835,31.06856,0.13076,384.9888,3.956829,-0.733215,-0.5297328,-1.610066,-14.35724,266.3049,130.4405,-3.154602,5.135468,84.70588,1.39,1575,48,33,0,43.52941,43.92157,1.329426,25.73286,0.42,15.96839,154.7601,345.9,14.31572,5.666307,275,50,3418,0.97,1.374696,1.03125,1.38104,1.03125,0,0,0,0,0,0,0,0,0,0,0,0,12.88,0,0,0,0,0,0,0,0,0,79,49,0,0,0,0,0,0,0,0,0,0,0,0,0,0,0,0,0,0,0,0,0,0,0,0,0,0,0,0,0,0,0,0,0,0,0,0,0,0,0,0,0,0,0,0,0,0,0,0,0,0,0,0,0,0,0,13,-0.1876782,0,19.93309,0.8449205,0.01284479,5.754718,1.831014,1,9.408744
111.516,22.99073,5.29682,3.55994,-2.857742,2.499985,-0.972229,90,90,-0.2532869,10.14835,31.06856,0.13076,384.9888,3.956829,0.6252382,0.2824223,0.6368963,-13.84402,266.4,130.194,-3.607819,6.250931,84.70588,1.39,1575,48,33,0,43.52941,43.92157,1.329426,25.73286,0.42,15.96839,154.7601,346,14.31572,5.666307,275,50,3418,0.97,1.374696,1.03125,1.38104,1.03125,0,0,0,0,0,0,0,0,0,0,0,0,12.88,0,0,0,0,0,0,0,0,0,79,49,0,0,0,0,0,0,0,0,0,0,0,0,0,0,0,0,0,0,0,0,0,0,0,0,0,0,0,0,0,0,0,0,0,0,0,0,0,0,0,0,0,0,0,0,0,0,0,0,0,0,0,0,0,0,0,13,-0.1876782,0,19.93309,0.8449205,0.01284479,5.754718,1.831014,1,9.408744
112.516,26.71896,6.795675,3.569375,-2.043961,-0.3955994,-0.4619446,90,90,0.7440074,11.361,31.06856,0.140195,425.0096,5.076504,0.06872008,-0.2917402,-0.373356,-14.39803,266.9667,129.9017,-3.877419,4.848129,69.80392,1.47,1805,49,33,0,41.17647,41.56863,1.480593,31.18798,0.5,20.48701,161.602,346,15.80388,5.675831,275,50,3418,0.97,1.514752,1.289063,1.547448,1.332031,0,0,0,0,0,0,0,0,0,0,0,0,12.88,0,0,0,0,0,0,0,0,0,79,49,0,0,0,0,0,0,0,0,0,0,0,0,0,0,0,0,0,0,0,0,0,0,0,0,0,0,0,0,0,0,0,0,0,0,0,0,0,0,0,0,0,0,0,0,0,0,0,0,0,0,0,0,0,0,0,13,-0.09963793,0,21.9639,0.8675323,0.01377161,6.009133,1.86648,1,9.408744
113.526,26.71896,6.795675,3.569375,-0.4642944,1.452804,-0.4353638,90,90,0.7440074,11.361,31.06856,0.140195,425.0096,5.076504,0.07384577,-0.03416212,0.04743009,-15.04853,266.8007,129.9525,-3.961876,5.650482,69.80392,1.47,1805,49,33,0,41.17647,41.56863,1.480593,31.18798,0.5,20.48701,161.602,346.1,15.80388,5.675831,275,50,3418,0.97,1.514752,1.289063,1.547448,1.332031,0,0,0,0,0,0,0,0,0,0,0,0,12.88,0,0,0,0,0,0,0,0,0,79,49,0,0,0,0,0,0,0,0,0,0,0,0,0,0,0,0,0,0,0,0,0,0,0,0,0,0,0,0,0,0,0,0,0,0,0,0,0,0,0,0,0,0,0,0,0,0,0,0,0,0,0,0,0,0,0,13,-0.09963793,0,21.9639,0.8675323,0.01377161,6.009133,1.86648,1,9.408744
114.513,29.82582,3.949314,3.575762,1.600403,-0.02947998,-0.3256683,90,90,0.7627762,8.877045,31.06856,0.1465815,221.2662,2.950216,0.02322492,-0.1859778,0.2685581,-14.86206,267.6514,129.4294,-4.479889,5.371689,90.19608,1.39,1342.5,49,33,0,43.52941,43.52941,0.9139284,21.86611,0.42,11.90605,163.5523,346.2,8.227732,5.679016,275,50,3418,0.97,1.241472,0.7265625,1.239032,0.7109375,0,0,0,0,0,0,0,0,0,0,0,0,12.88,0,0,0,0,0,0,0,0,0,79,49,0,0,0,0,0,0,0,0,0,0,0,0,0,0,0,0,0,0,0,0,0,0,0,0,0,0,0,0,0,0,0,0,0,0,0,0,0,0,0,0,0,0,0,0,0,0,0,0,0,0,0,0,0,0,0,13,-0.004320059,0,18.00134,0.8962365,0.01439897,6.081652,1.895928,1,9.408744
115.521,29.82582,3.949314,3.575762,-1.165451,-2.288345,-0.7438202,90,90,0.7627762,8.877045,31.06856,0.1465815,221.2662,2.950216,0.3204375,0.2368153,-1.024841,-15.5863,267.754,129.4726,-4.686592,5.225983,90.19608,1.39,1342.5,49,33,0,43.52941,43.52941,0.9139284,21.86611,0.42,11.90605,163.5523,346.2,8.227732,5.679016,275,50,3418,0.97,1.241472,0.7265625,1.239032,0.7109375,0,0,0,0,0,0,0,0,0,0,0,0,12.88,0,0,0,0,0,0,0,0,0,79,49,0,0,0,0,0,0,0,0,0,0,0,0,0,0,0,0,0,0,0,0,0,0,0,0,0,0,0,0,0,0,0,0,0,0,0,0,0,0,0,0,0,0,0,0,0,0,0,0,0,0,0,0,0,0,0,13,-0.004320059,0,18.00134,0.8962365,0.01439897,6.081652,1.895928,1,9.408744
116.521,31.68993,5.623119,3.583573,-1.208557,-2.44426,-0.7103271,90,90,0.5479525,11.70227,31.68993,0.1543928,296.5116,4.200581,0.1251878,-0.2549958,-1.051186,-15.39949,267.2419,129.6507,-5.20507,6.948441,87.05882,1.4,1450,49,33,0,41.96078,40,1.354013,23.78694,0.43,16.95209,167.3767,346.2,11.02571,5.685062,275,50,3418,0.97,1.38104,1.019531,1.365424,1,0,0,0,0,0,0,0,0,0,0,0,0,12.88,0,0,0,0,0,0,0,0,0,79,49,0,0,0,0,0,0,0,0,0,0,0,0,0,0,0,0,0,0,0,0,0,0,0,0,0,0,0,0,0,0,0,0,0,0,0,0,0,0,0,0,0,0,0,0,0,0,0,0,0,0,0,0,0,0,0,13,0.02481797,0,20.02508,0.9224271,0.01516629,6.223863,1.927923,1,9.408744
117.522,33.55404,4.324189,3.589383,1.453079,-0.3684082,0.02655029,90,90,0.4543421,8.751611,33.55404,0.1602028,215.3503,3.230255,0.06738096,0.6326292,0.295683,-15.36788,267.3649,130.1785,-4.992569,6.020386,82.35294,1.23,1491,49,33,0,38.03922,39.60784,0.9987836,21.48944,0.26,13.03619,168.6836,346.2,8.007751,5.687656,275,50,3418,0.97,1.260016,0.765625,1.252696,0.75,0,0,0,0,0,0,0,0,0,0,0,0,12.88,0,0,0,0,0,0,0,0,0,79,49,0,0,0,0,0,0,0,0,0,0,0,0,0,0,0,0,0,0,0,0,0,0,0,0,0,0,0,0,0,0,0,0,0,0,0,0,0,0,0,0,0,0,0,0,0,0,0,0,0,0,0,0,0,0,0,13,0.08384497,0,18.27023,0.9497239,0.01573702,6.27246,1.957461,1,9.408744
118.518,33.55404,4.324189,3.589383,-0.3085632,-4.086426,-1.245697,90,90,0.4543421,8.751611,33.55404,0.1602028,215.3503,3.230255,0.001860714,-0.3967606,-0.630434,-15.49838,266.7075,130.1037,-4.047371,4.7957,82.35294,1.23,1491,49,33,0,38.03922,39.60784,0.9987836,21.48944,0.26,13.03619,168.6836,346.2,8.007751,5.687656,275,50,3418,0.97,1.260016,0.765625,1.252696,0.75,0,0,0,0,0,0,0,0,0,0,0,0,12.88,0,0,0,0,0,0,0,0,0,79,49,0,0,0,0,0,0,0,0,0,0,0,0,0,0,0,0,0,0,0,0,0,0,0,0,0,0,0,0,0,0,0,0,0,0,0,0,0,0,0,0,0,0,0,0,0,0,0,0,0,0,0,0,0,0,0,13,0.08384497,0,18.27023,0.9497239,0.01573702,6.27246,1.957461,1,9.408744
119.531,33.55404,4.324189,3.589383,1.391388,-0.5322876,-0.8904877,90,90,0.4543421,8.751611,33.55404,0.1602028,215.3503,3.230255,-0.01375778,-0.3195313,-0.326972,-15.44268,267.7271,129.9755,-4.728958,5.142242,82.35294,1.23,1491,49,33,0,38.03922,39.60784,0.9987836,21.48944,0.26,13.03619,168.6836,346.2,8.007751,5.687656,275,50,3418,0.97,1.260016,0.765625,1.252696,0.75,0,0,0,0,0,0,0,0,0,0,0,0,12.88,0,0,0,0,0,0,0,0,0,79,49,0,0,0,0,0,0,0,0,0,0,0,0,0,0,0,0,0,0,0,0,0,0,0,0,0,0,0,0,0,0,0,0,0,0,0,0,0,0,0,0,0,0,0,0,0,0,0,0,0,0,0,0,0,0,0,13,0.08384497,0,18.27023,0.9497239,0.01573702,6.27246,1.957461,1,9.408744
120.522,33.55404,4.324189,3.589383,-1.873825,-0.8464813,-0.9263458,90,90,0.4543421,8.751611,33.55404,0.1602028,215.3503,3.230255,-0.158591,0.171665,0.731082,-15.47955,267.0043,129.7355,-4.021744,5.129593,82.35294,1.23,1491,49,33,0,38.03922,39.60784,0.9987836,21.48944,0.26,13.03619,168.6836,346.4,8.007751,5.687656,275,50,3418,0.97,1.260016,0.765625,1.252696,0.75,0,0,0,0,0,0,0,0,0,0,0,0,12.88,0,0,0,0,0,0,0,0,0,79,49,0,0,0,0,0,0,0,0,0,0,0,0,0,0,0,0,0,0,0,0,0,0,0,0,0,0,0,0,0,0,0,0,0,0,0,0,0,0,0,0,0,0,0,0,0,0,0,0,0,0,0,0,0,0,0,13,0.08384497,0,18.27023,0.9497239,0.01573702,6.27246,1.957461,1,9.408744
121.513,34.79679,3.928952,3.594662,1.322662,0.08253479,-0.188858,90,90,0.3834428,9.73398,34.79679,0.1654819,188.6789,2.935005,0.00659945,-0.3651022,-0.9675611,-15.58714,266.6891,129.9076,-3.845535,5.147995,91.76471,1.24,1218,45,32,0,36.07843,35.29412,0.9329696,17.69748,0.27,11.84466,169.2572,346.5,7.01598,5.68924,295,50,3418,0.97,1.342488,0.9453125,1.331264,0.9375,0,0,0,0,0,0,0,0,0,0,0,0,12.96,0,0,0,0,0,0,0,0,0,90,49,0,0,0,0,0,0,0,0,0,0,0,0,0,0,0,0,0,0,0,0,0,0,0,0,0,0,0,0,0,0,0,0,0,0,0,0,0,0,0,0,0,0,0,0,0,0,0,0,0,0,0,0,0,0,0,13,0.1147407,0,19.46608,0.9776953,0.01625559,6.293788,2.010517,1,9.408744
122.515,36.03953,3.572213,3.603074,2.36879,2.031143,0.3439636,90,90,0.2426236,8.700156,36.03953,0.1738941,165.6319,2.668514,-0.05560758,-0.1786286,0.4699801,-15.2817,267.0261,129.5706,-3.96489,5.012924,77.25491,1.16,1239,45,32,0,33.33333,33.33333,0.9203133,17.05289,0.19,10.7692,169.0808,346.7,6.158983,5.690257,295,50,3418,0.97,1.340048,0.9570313,1.332728,0.9492188,0,0,0,0,0,0,0,0,0,0,0,0,12.96,0,0,0,0,0,0,0,0,0,90,49,0,0,0,0,0,0,0,0,0,0,0,0,0,0,0,0,0,0,0,0,0,0,0,0,0,0,0,0,0,0,0,0,0,0,0,0,0,0,0,0,0,0,0,0,0,0,0,0,0,0,0,0,0,0,0,13,0.1567278,0,19.4307,1.028467,0.01708193,6.28723,2.040085,1,9.408744
123.519,36.03953,3.572213,3.603074,1.265411,2.376022,-0.2469788,90,90,0.2426236,8.700156,36.03953,0.1738941,165.6319,2.668514,0.2539616,-0.1865475,-1.783356,-15.34875,268.1859,129.3036,-3.152466,4.601044,77.25491,1.16,1239,45,32,0,33.33333,33.33333,0.9203133,17.05289,0.19,10.7692,169.0808,346.8,6.158983,5.690257,295,50,3418,0.97,1.340048,0.9570313,1.332728,0.9492188,0,0,0,0,0,0,0,0,0,0,0,0,12.96,0,0,0,0,0,0,0,0,0,90,49,0,0,0,0,0,0,0,0,0,0,0,0,0,0,0,0,0,0,0,0,0,0,0,0,0,0,0,0,0,0,0,0,0,0,0,0,0,0,0,0,0,0,0,0,0,0,0,0,0,0,0,0,0,0,0,13,0.1567278,0,19.4307,1.028467,0.01708193,6.28723,2.040085,1,9.408744
124.516,36.6609,2.693071,3.606615,-5.401108,-3.574127,-0.7391357,90,90,0.1668929,6.572259,36.6609,0.1774353,122.7525,2.011777,0.2178111,-0.2109761,0.175456,-15.18331,267.7204,129.5807,-6.438797,2.278214,60.39216,1.07,1236.5,45,32,0,27.05882,27.05882,0.8101619,15.69808,0.1,8.118837,167.8077,346.9,4.564524,5.688866,295,50,3418,0.97,1.558184,1.320313,1.551352,1.34375,0,0,0,0,0,0,0,0,0,0,0,0,12.96,0,0,0,0,0,0,0,0,0,90,49,0,0,0,0,0,0,0,0,0,0,0,0,0,0,0,0,0,0,0,0,0,0,0,0,0,0,0,0,0,0,0,0,0,0,0,0,0,0,0,0,0,0,0,0,0,0,0,0,0,0,0,0,0,0,0,13,0.2204802,0,22.59367,1.057373,0.0174298,6.239892,2.069988,1,9.408744
125.516,36.6609,2.693071,3.606615,-0.1617126,2.02243,-0.8622437,90,90,0.1668929,6.572259,36.6609,0.1774353,122.7525,2.011777,-0.01629982,-0.2314988,-0.01554564,-14.79044,266.8915,129.3752,-4.5952,4.57663,60.39216,1.07,1236.5,45,32,0,27.05882,27.05882,0.8101619,15.69808,0.1,8.118837,167.8077,347,4.564524,5.688866,295,50,3418,0.97,1.558184,1.320313,1.551352,1.34375,0,0,0,0,0,0,0,0,0,0,0,0,12.96,0,0,0,0,0,0,0,0,0,90,49,0,0,0,0,0,0,0,0,0,0,0,0,0,0,0,0,0,0,0,0,0,0,0,0,0,0,0,0,0,0,0,0,0,0,0,0,0,0,0,0,0,0,0,0,0,0,0,0,0,0,0,0,0,0,0,13,0.2204802,0,22.59367,1.057373,0.0174298,6.239892,2.069988,1,9.408744
126.518,36.03953,1.967368,3.609275,0.7050781,-0.1829071,-0.5200043,90,90,0.001446629,4.870158,36.6609,0.1800947,91.22047,1.469663,-0.1274616,-0.3095946,-0.5497254,-14.728,266.5751,129.4882,-3.566589,5.235397,60.39216,1.05,1219,45,32,0,26.66667,27.05882,0.7586342,15.18664,0.08,5.931052,165.7842,347,3.392012,5.686078,295,50,3418,0.97,1.524512,1.277344,1.525,1.300781,0,0,0,0,0,0,0,0,0,0,0,0,12.96,0,0,0,0,0,0,0,0,0,90,49,0,0,0,0,0,0,0,0,0,0,0,0,0,0,0,0,0,0,0,0,0,0,0,0,0,0,0,0,0,0,0,0,0,0,0,0,0,0,0,0,0,0,0,0,0,0,0,0,0,0,0,0,0,0,0,13,0.2415803,0,22.10542,1.08632,0.01769103,6.164647,2.099095,1,9.408744
127.517,36.03953,1.967368,3.609275,0.8214874,-3.479202,-0.2450256,90,90,0.001446629,4.870158,36.6609,0.1800947,91.22047,1.469663,-0.5699673,-0.04425741,0.9825445,-14.66888,267.0008,129.6167,-4.030411,4.993546,60.39216,1.05,1219,45,32,0,26.66667,27.05882,0.7586342,15.18664,0.08,5.931052,165.7842,347,3.392012,5.686078,295,50,3418,0.97,1.524512,1.277344,1.525,1.300781,0,0,0,0,0,0,0,0,0,0,0,0,12.96,0,0,0,0,0,0,0,0,0,90,49,0,0,0,0,0,0,0,0,0,0,0,0,0,0,0,0,0,0,0,0,0,0,0,0,0,0,0,0,0,0,0,0,0,0,0,0,0,0,0,0,0,0,0,0,0,0,0,0,0,0,0,0,0,0,0,13,0.2415803,0,22.10542,1.08632,0.01769103,6.164647,2.099095,1,9.408744
128.519,36.6609,2.031003,3.611909,0.1566162,-1.65213,-0.1806641,90,90,0.002155425,4.98272,36.6609,0.1827291,92.57488,1.5172,-0.2795072,-0.003799006,0.2553667,-14.58451,266.3075,129.6562,-3.79422,5.523712,60,1.06,1230,44,32,0,26.66667,26.66667,0.7944154,15.46962,0.09,6.122892,163.8873,347,3.442375,5.683331,295,50,3418,0.97,1.56404,1.332031,1.561112,1.359375,0,0,0,0,0,0,0,0,0,0,0,0,12.96,0,0,0,0,0,0,0,0,0,90,49,0,0,0,0,0,0,0,0,0,0,0,0,0,0,0,0,0,0,0,0,0,0,0,0,0,0,0,0,0,0,0,0,0,0,0,0,0,0,0,0,0,0,0,0,0,0,0,0,0,0,0,0,0,0,0,13,0.3688902,0,22.67858,1.114968,0.01794981,6.094112,2.134473,1,9.408744
129.514,36.6609,2.031003,3.611909,-0.4859314,2.121109,-0.640625,90,90,0.002155425,4.98272,36.6609,0.1827291,92.57488,1.5172,0.1417324,-0.1544714,-1.652976,-14.6809,266.1206,129.1861,-3.77108,4.750656,60,1.06,1230,44,32,0,26.66667,26.66667,0.7944154,15.46962,0.09,6.122892,163.8873,347.2,3.442375,5.683331,295,50,3418,0.97,1.56404,1.332031,1.561112,1.359375,0,0,0,0,0,0,0,0,0,0,0,0,12.96,0,0,0,0,0,0,0,0,0,90,49,0,0,0,0,0,0,0,0,0,0,0,0,0,0,0,0,0,0,0,0,0,0,0,0,0,0,0,0,0,0,0,0,0,0,0,0,0,0,0,0,0,0,0,0,0,0,0,0,0,0,0,0,0,0,0,13,0.3688902,0,22.67858,1.114968,0.01794981,6.094112,2.134473,1,9.408744
130.520,36.6609,2.741348,3.616263,-2.508835,-4.915817,-1.512436,90,90,0.07945642,6.747373,36.6609,0.187083,124.953,2.047841,-0.2249897,0.2817183,1.278903,-14.41412,265.6203,129.0996,-3.792686,5.295181,36.47059,0.77,1226,44,32,0,26.27451,25.88235,1.066257,11.23614,-0.2,8.264379,162.7095,347.2,4.646349,5.681807,295,50,3418,0.97,1.330288,0.8828125,1.399584,1.050781,0,0,0,0,0,0,0,0,0,0,0,0,12.96,0,0,0,0,0,0,0,0,0,90,49,0,0,0,0,0,0,0,4,0,0,0,0,0,0,0,0,0,0,0,0,0,0,0,0,0,0,0,0,0,0,0,0,0,0,0,0,0,0,0,0,0,0,0,0,0,0,0,0,0,0,0,0,0,0,0,13,0.308129,0,19.28918,1.149798,0.01837751,6.050316,2.163976,1,9.408744
131.517,36.6609,2.741348,3.616263,2.161469,-2.554825,-0.3057404,90,90,0.07945642,6.747373,36.6609,0.187083,124.953,2.047841,0.1835547,0.2367369,0.2585043,-14.54342,265.478,130.2011,-3.117622,4.889206,36.47059,0.77,1226,44,32,0,26.27451,25.88235,1.066257,11.23614,-0.2,8.264379,162.7095,347.3,4.646349,5.681807,295,50,3418,0.97,1.330288,0.8828125,1.399584,1.050781,0,0,0,0,0,0,0,0,0,0,0,0,12.96,0,0,0,0,0,0,0,0,0,90,49,0,0,0,0,0,0,0,4,0,0,0,0,0,0,0,0,0,0,0,0,0,0,0,0,0,0,0,0,0,0,0,0,0,0,0,0,0,0,0,0,0,0,0,0,0,0,0,0,0,0,0,0,0,0,0,13,0.308129,0,19.28918,1.149798,0.01837751,6.050316,2.163976,1,9.408744
132.514,36.6609,1.968401,3.618875,1.634995,-4.416061,-1.408279,90,90,3.885781E-16,4.840945,36.6609,0.1896952,89.72145,1.470435,0.1003374,0.5206661,0.5778696,-14.68414,266.186,130.6939,-3.762962,6.293488,36.47059,1.03,1227,44,32,0,32.15686,33.33333,1.263673,15.04242,0.06,5.934166,160.9286,347.3,3.336271,5.678963,295,50,3418,0.97,0.97356,-0.2265625,1.006744,0.01953125,0,0,0,0,0,0,0,0,0,0,0,0,12.96,0,0,0,0,0,0,0,0,0,90,49,0,0,0,0,0,0,0,4,0,0,0,0,0,0,0,0,0,0,0,0,0,0,0,0,0,0,0,0,0,0,0,0,0,0,0,0,0,0,0,0,0,0,0,0,0,0,0,0,0,0,0,0,0,0,0,12.9,0.2200887,0,14.11662,1.178754,0.01863411,5.984093,2.194131,1,9.408744
133.519,37.28227,1.651365,3.621099,-0.9718018,1.019516,-1.33577,90,90,0.07704712,3.986521,37.28227,0.1919187,74.01614,1.233602,0.4195107,0.3925065,-2.471664,-14.5459,266.8714,130.4256,-3.838959,5.367844,41.96078,0.88,1250,44,32,0,30.98039,31.76471,1.059278,13.09268,-0.09,4.978393,158.7682,347.4,2.752273,5.675257,295,50,3418,0.97,0.96868,-0.21875,1.002352,0,0,0,0,0,0,0,0,0,0,0,0,0,12.96,0,0,0,0,0,0,0,0,0,90,49,0,0,0,0,0,0,0,4,0,0,0,0,0,0,0,0,0,0,0,0,0,0,0,0,0,0,0,0,0,0,0,0,0,0,0,0,0,0,0,0,0,0,0,0,0,0,0,0,0,0,0,0,0,0,0,12.9,0.1709832,0,14.04586,1.208798,0.01885252,5.90376,2.222873,1,9.408744
134.522,37.28227,1.651365,3.621099,-0.2150574,1.479065,-3.144241,90,90,0.07704712,3.986521,37.28227,0.1919187,74.01614,1.233602,-0.6765508,0.461896,0.2030561,-14.71852,266.0512,131.4226,-3.397636,5.090363,41.96078,0.88,1250,44,32,0,30.98039,31.76471,1.059278,13.09268,-0.09,4.978393,158.7682,347.5,2.752273,5.675257,295,50,3418,0.97,0.96868,-0.21875,1.002352,0,0,0,0,0,0,0,0,0,0,0,0,0,12.96,0,0,0,0,0,0,0,0,0,90,49,0,0,0,0,0,0,0,4,0,0,0,0,0,0,0,0,0,0,0,0,0,0,0,0,0,0,0,0,0,0,0,0,0,0,0,0,0,0,0,0,0,0,0,0,0,0,0,0,0,0,0,0,0,0,0,12.9,0.1709832,0,14.04586,1.208798,0.01885252,5.90376,2.222873,1,9.408744
135.518,37.28227,2.019089,3.623718,-1.987076,-3.365067,-2.578827,90,90,0.07704712,4.776788,37.28227,0.194538,90.49796,1.508299,-0.2461044,0.3575844,1.329369,-14.55229,265.935,131.7691,-3.522026,5.050659,41.56863,0.91,1275.5,46,32,0,29.41176,29.01961,1.104984,13.81522,-0.06,6.086974,157.1552,347.5,3.365145,5.672411,295,50,3418,0.97,0.952088,-0.3359375,0.994544,-0.0390625,0,0,0,0,0,0,0,0,0,0,0,0,12.96,0,0,0,0,0,0,0,0,0,90,49,0,0,0,0,0,0,0,4,0,0,0,0,0,0,0,0,0,0,0,0,0,0,0,0,0,0,0,0,0,0,0,0,0,0,0,0,0,0,0,0,0,0,0,0,0,0,0,0,0,0,0,0,0,0,0,12.9,0.1259076,0,13.80528,1.237872,0.01910983,5.843778,2.257995,1,9.408744
136.518,37.28227,2.019089,3.623718,1.289047,2.510483,-1.21759,90,90,0.07704712,4.776788,37.28227,0.194538,90.49796,1.508299,-0.4706567,0.65148,-1.227823,-14.37013,265.8151,132.0658,-3.225586,5.099548,41.56863,0.91,1275.5,46,32,0,29.41176,29.01961,1.104984,13.81522,-0.06,6.086974,157.1552,347.5,3.365145,5.672411,295,50,3418,0.97,0.952088,-0.3359375,0.994544,-0.0390625,0,0,0,0,0,0,0,0,0,0,0,0,12.96,0,0,0,0,0,0,0,0,0,90,49,0,0,0,0,0,0,0,4,0,0,0,0,0,0,0,0,0,0,0,0,0,0,0,0,0,0,0,0,0,0,0,0,0,0,0,0,0,0,0,0,0,0,0,0,0,0,0,0,0,0,0,0,0,0,0,12.9,0.1259076,0,13.80528,1.237872,0.01910983,5.843778,2.257995,1,9.408744
137.522,37.28227,1.702133,3.626383,3.160797,-3.557953,-0.8873138,90,90,3.885781E-16,4.070006,37.28227,0.1972026,76.29161,1.271527,0.3328864,-0.7926275,0.8033619,-14.16244,265.7227,131.5684,-3.802124,5.814636,30.98039,1.08,1262,46,32,0,28.23529,28.23529,0.9273241,16.12088,0.11,5.131443,154.9352,347.5,2.836886,5.668246,295,50,3418,0.97,1.8422,1.703125,1.797792,1.675781,0,0,0,0,0,0,0,0,0,0,0,0,12.96,0,0,0,0,0,0,0,0,0,90,49,0,0,0,0,0,0,0,0,0,0,0,0,0,0,0,0,0,0,0,0,0,0,0,0,0,0,0,0,0,0,0,0,0,0,0,0,0,0,0,0,0,0,0,0,0,0,0,0,0,0,0,0,0,0,0,12.9,0.08011476,0,26.7119,1.272807,0.01937157,5.761228,2.287145,1,9.408744
138.517,37.28227,1.702133,3.626383,5.299133,7.3833,-2.000992,90,90,3.885781E-16,4.070006,37.28227,0.1972026,76.29161,1.271527,-0.1124261,0.5497476,0.1415491,-14.58995,266.746,133.5026,-4.382736,6.417465,30.98039,1.08,1262,46,32,0,28.23529,28.23529,0.9273241,16.12088,0.11,5.131443,154.9352,347.5,2.836886,5.668246,295,50,3418,0.97,1.8422,1.703125,1.797792,1.675781,0,0,0,0,0,0,0,0,0,0,0,0,12.96,0,0,0,0,0,0,0,0,0,90,49,0,0,0,0,0,0,0,0,0,0,0,0,0,0,0,0,0,0,0,0,0,0,0,0,0,0,0,0,0,0,0,0,0,0,0,0,0,0,0,0,0,0,0,0,0,0,0,0,0,0,0,0,0,0,0,12.9,0.08011476,0,26.7119,1.272807,0.01937157,5.761228,2.287145,1,9.408744
139.519,37.28227,1.702133,3.626383,-0.01722717,4.051636,-2.992004,90,90,3.885781E-16,4.070006,37.28227,0.1972026,76.29161,1.271527,0.1584229,0.230664,1.496418,-14.33825,266.3875,134.0181,-3.843727,6.468384,30.98039,1.08,1262,46,32,0,28.23529,28.23529,0.9273241,16.12088,0.11,5.131443,154.9352,347.4,2.836886,5.668246,295,50,3418,0.97,1.8422,1.703125,1.797792,1.675781,0,0,0,0,0,0,0,0,0,0,0,0,12.96,0,0,0,0,0,0,0,0,0,90,49,0,0,0,0,0,0,0,0,0,0,0,0,0,0,0,0,0,0,0,0,0,0,0,0,0,0,0,0,0,0,0,0,0,0,0,0,0,0,0,0,0,0,0,0,0,0,0,0,0,0,0,0,0,0,0,12.9,0.08011476,0,26.7119,1.272807,0.01937157,5.761228,2.287145,1,9.408744
140.517,37.28227,0.8278806,3.627463,1.659851,3.241287,-2.596313,90,90,3.885781E-16,2.014684,37.28227,0.1982826,37.10659,0.6184432,0.1154457,-0.7304468,0.1689581,-14.69567,267.0225,135.041,-4.588593,7.622757,0,1.04,1240,46,32,0,15.29412,14.90196,0.6116538,15.25319,0.07,2.495823,152.3051,347.4,1.3798,5.663014,314,50,3418,0.97,15.9903,3.796875,12.11118,3.65625,0,0,0,0,0,0,0,0,0,0,0,0,14.5,0,0,0,0,0,0,0,0,0,81,48,0,0,0,0,0,0,0,0,0,0,0,0,0,0,0,0,0,0,0,0,0,0,0,0,0,0,0,0,0,0,0,0,0,0,0,0,0,0,0,0,0,0,0,0,0,0,0,0,0,0,0,0,0,0,0,14.6,0.04921908,0,231.8593,1.301878,0.01947766,5.663428,2.326097,1,9.408744
141.517,34.79679,0,3.627463,0.8109283,-0.7929535,-1.725555,90,90,-0.2375794,0,37.28227,0.1982826,0,0,-0.5852643,-0.3349918,-1.450899,-14.47797,266.6791,135.3171,-4.419594,8.067245,0,1.03,1074.5,46,32,0,15.29412,14.90196,1.179556,13.09029,0.06,0,148.1652,347.4,0,5.654379,314,50,3418,0.97,15.9903,3.699219,11.0937,3.613281,0,0,0,0,0,0,0,0,0,0,0,0,14.5,0,0,0,0,0,0,0,0,0,81,48,0,0,0,0,0,0,0,0,0,0,0,0,0,0,0,0,0,0,0,0,0,0,0,0,0,0,0,0,0,0,0,0,0,0,0,0,0,0,0,0,0,0,0,0,0,0,0,0,0,0,0,0,0,0,0,14.6,-0.01592584,0,231.8593,1.338253,0.01947766,5.50949,2.355026,1,9.408744
142.522,34.79679,0,3.627463,0.2740173,-2.824356,-2.150421,90,90,-0.2375794,0,37.28227,0.1982826,0,0,-0.05361837,0.5622242,0.1152076,-13.70193,266.8733,136.0853,-4.157669,7.971329,0,1.03,1074.5,46,32,0,15.29412,14.90196,1.179556,13.09029,0.06,0,148.1652,347.3,0,5.654379,314,50,3418,0.97,15.9903,3.699219,11.0937,3.613281,0,0,0,0,0,0,0,0,0,0,0,0,14.5,0,0,0,0,0,0,0,0,0,81,48,0,0,0,0,0,0,0,0,0,0,0,0,0,0,0,0,0,0,0,0,0,0,0,0,0,0,0,0,0,0,0,0,0,0,0,0,0,0,0,0,0,0,0,0,0,0,0,0,0,0,0,0,0,0,0,14.6,-0.01592584,0,231.8593,1.338253,0.01947766,5.50949,2.355026,1,9.408744
143.581,29.20445,0,3.627463,0.9798279,0.8311768,-0.5380096,90,90,-0.9579821,0,37.28227,0.1982826,0,0,-0.2977628,-0.1809244,0.3449235,-14.31146,266.7008,136.8102,-4.198318,7.630096,25.88235,1.01,1269,42,32,0,25.09804,26.66667,0.6814057,15.15963,0.04,0,145.6989,347.1,0,5.649014,314,50,3418,0.97,1.900272,1.769531,1.899296,1.785156,0,0,0,0,0,0,0,0,0,0,0,0,14.5,0,0,0,0,0,0,0,0,0,81,48,0,0,0,0,0,0,0,0,0,0,0,0,0,0,0,0,0,0,0,0,0,0,0,0,0,0,0,0,0,0,0,0,0,0,0,0,0,0,0,0,0,0,0,0,0,0,0,0,0,0,0,0,0,0,0,13,-0.1757559,0,27.55394,1.360906,0.01947766,5.41778,2.389968,1,9.408744
144.517,29.20445,0,3.627463,0.4187622,0.9862975,-0.5899963,90,90,-0.9579821,0,37.28227,0.1982826,0,0,0.06985274,-0.2739056,0.07843864,-14.02949,266.0302,136.7739,-3.590149,7.772964,25.88235,1.01,1269,42,32,0,25.09804,26.66667,0.6814057,15.15963,0.04,0,145.6989,347,0,5.649014,314,50,3418,0.97,1.900272,1.769531,1.899296,1.785156,0,0,0,0,0,0,0,0,0,0,0,0,14.5,0,0,0,0,0,0,0,0,0,81,48,0,0,0,0,0,0,0,0,0,0,0,0,0,0,0,0,0,0,0,0,0,0,0,0,0,0,0,0,0,0,0,0,0,0,0,0,0,0,0,0,0,0,0,0,0,0,0,0,0,0,0,0,0,0,0,13,-0.1757559,0,27.55394,1.360906,0.01947766,5.41778,2.389968,1,9.408744
145.521,29.20445,0.9083076,3.628988,1.820618,-5.509171,-2.636963,90,90,-0.7204027,2.138825,37.28227,0.1998083,51.97203,0.6785238,0.2312826,0.1145719,-0.7179739,-14.40939,267.3778,137.3373,-4.193596,7.643539,58.82353,1.12,1281.5,42,32,0,29.01961,27.84314,0.7888134,17.19174,0.15,2.738287,143.7548,346.9,1.932568,5.644531,314,50,3418,0.97,1.547448,1.316406,1.541592,1.316406,0,0,0,0,0,0,0,0,0,0,0,0,14.5,0,0,0,0,0,0,0,0,0,81,48,0,0,0,0,0,0,0,0,0,0,0,0,0,0,0,0,0,0,0,0,0,0,0,0,0,0,0,0,0,0,0,0,0,0,0,0,0,0,0,0,0,0,0,0,0,0,0,0,0,0,0,0,0,0,0,13,-0.1602957,0,22.438,1.389924,0.01962753,5.345488,2.422459,1,9.408744
146.519,29.20445,0.9083076,3.628988,0.624176,-2.01149,-1.371277,90,90,-0.7204027,2.138825,37.28227,0.1998083,51.97203,0.6785238,0.1550092,0.2157791,-0.893475,-14.44709,268.7719,137.6975,-5.057777,9.184372,58.82353,1.12,1281.5,42,32,0,29.01961,27.84314,0.7888134,17.19174,0.15,2.738287,143.7548,346.8,1.932568,5.644531,314,50,3418,0.97,1.547448,1.316406,1.541592,1.316406,0,0,0,0,0,0,0,0,0,0,0,0,14.5,0,0,0,0,0,0,0,0,0,81,48,0,0,0,0,0,0,0,0,0,0,0,0,0,0,0,0,0,0,0,0,0,0,0,0,0,0,0,0,0,0,0,0,0,0,0,0,0,0,0,0,0,0,0,0,0,0,0,0,0,0,0,0,0,0,0,13,-0.1602957,0,22.438,1.389924,0.01962753,5.345488,2.422459,1,9.408744
147.521,29.82582,2.596345,3.632476,0.2133789,0.2761536,-1.919373,90,90,0.07586622,5.855545,37.28227,0.2032958,145.4641,1.939521,0.348962,0.233976,-0.1047065,-14.75016,268.1454,139.0294,-3.910706,8.859528,74.11765,1.16,1338,42,32,0,34.11765,34.11765,0.9824252,18.59077,0.19,7.827237,143.7396,346.7,5.409048,5.644192,314,50,3418,0.97,1.32736,0.9101563,1.321992,0.9101563,0,0,0,0,0,0,0,0,0,0,0,0,14.5,0,0,0,0,0,0,0,0,0,81,48,0,0,0,0,0,0,0,0,0,0,0,0,0,0,0,0,0,0,0,0,0,0,0,0,0,0,0,0,0,0,0,0,0,0,0,0,0,0,0,0,0,0,0,0,0,0,0,0,0,0,0,0,0,0,0,13,-0.1610138,0,19.24672,1.414334,0.01997012,5.344924,2.452633,1,9.408744
148.522,29.82582,2.596345,3.632476,0.1051331,3.369492,-1.960297,90,90,0.07586622,5.855545,37.28227,0.2032958,145.4641,1.939521,-0.3011726,0.3973594,-0.4005945,-14.7036,269.4547,139.0288,-4.574242,9.305923,74.11765,1.16,1338,42,32,0,34.11765,34.11765,0.9824252,18.59077,0.19,7.827237,143.7396,346.7,5.409048,5.644192,314,50,3418,0.97,1.32736,0.9101563,1.321992,0.9101563,0,0,0,0,0,0,0,0,0,0,0,0,14.5,0,0,0,0,0,0,0,0,0,81,48,0,0,0,0,0,0,0,0,0,0,0,0,0,0,0,0,0,0,0,0,0,0,0,0,0,0,0,0,0,0,0,0,0,0,0,0,0,0,0,0,0,0,0,0,0,0,0,0,0,0,0,0,0,0,0,13,-0.1610138,0,19.24672,1.414334,0.01997012,5.344924,2.452633,1,9.408744
149.522,31.06856,3.264887,3.636955,3.877502,0.6929321,-1.510345,90,90,0.2279864,7.172994,37.28227,0.2077748,175.6033,2.438935,0.7515779,-0.1812867,-0.5729858,-15.30645,269.0217,139.558,-4.119705,9.552185,70.98039,1.15,1373.5,42,32,0,33.72549,34.5098,0.9390681,18.91951,0.18,9.842698,144.3185,346.7,6.529768,5.645169,314,50,3418,0.97,1.379088,1.015625,1.375672,1.023438,0,0,0,0,0,0,0,0,0,0,0,0,14.5,0,0,0,0,0,0,0,0,0,81,48,0,0,0,0,0,0,0,0,0,0,0,0,0,0,0,0,0,0,0,0,0,0,0,0,0,0,0,0,0,0,0,0,0,0,0,0,0,0,0,0,0,0,0,0,0,0,0,0,0,0,0,0,0,0,0,13,-0.1305897,0,19.99678,1.439696,0.02041009,5.366451,2.483503,1,9.408744
150.517,31.06856,3.264887,3.636955,-1.017883,0.4385529,-2.018066,90,90,0.2279864,7.172994,37.28227,0.2077748,175.6033,2.438935,-0.4944519,-0.1135801,1.075352,-14.55849,269.3087,139.662,-4.394554,9.181976,70.98039,1.15,1373.5,42,32,0,33.72549,34.5098,0.9390681,18.91951,0.18,9.842698,144.3185,346.7,6.529768,5.645169,314,50,3418,0.97,1.379088,1.015625,1.375672,1.023438,0,0,0,0,0,0,0,0,0,0,0,0,14.5,0,0,0,0,0,0,0,0,0,81,48,0,0,0,0,0,0,0,0,0,0,0,0,0,0,0,0,0,0,0,0,0,0,0,0,0,0,0,0,0,0,0,0,0,0,0,0,0,0,0,0,0,0,0,0,0,0,0,0,0,0,0,0,0,0,0,13,-0.1305897,0,19.99678,1.439696,0.02041009,5.366451,2.483503,1,9.408744
151.519,32.3113,2.94179,3.640959,1.941956,-4.327667,-1.548325,90,90,0.3036456,6.289147,37.28227,0.2117784,152.1398,2.197575,0.2815305,-0.6903019,-2.479706,-15.24805,268.9847,140.4638,-3.697685,9.367004,72.94118,1.11,1411.5,45,32,0,32.94118,32.15686,0.8606991,18.76667,0.14,8.868654,144.4428,346.7,5.657284,5.645144,314,50,3418,0.97,1.55672,1.332031,1.548424,1.34375,0,0,0,0,0,0,0,0,0,0,0,0,14.5,0,0,0,0,0,0,0,0,0,81,48,0,0,0,0,0,0,0,0,0,0,0,0,0,0,0,0,0,0,0,0,0,0,0,0,0,0,0,0,0,0,0,0,0,0,0,0,0,0,0,0,0,0,0,0,0,0,0,0,0,0,0,0,0,0,0,13,-0.1002846,0,22.57244,1.466175,0.02080338,5.371071,2.520082,1,9.408744
152.522,32.3113,2.94179,3.640959,-0.2192535,-0.7017365,-2.101059,90,90,0.3036456,6.289147,37.28227,0.2117784,152.1398,2.197575,-0.4684669,-0.6418319,-0.3004692,-15.35093,268.5433,140.6603,-3.174202,9.756454,72.94118,1.11,1411.5,45,32,0,32.94118,32.15686,0.8606991,18.76667,0.14,8.868654,144.4428,346.6,5.657284,5.645144,314,50,3418,0.97,1.55672,1.332031,1.548424,1.34375,0,0,0,0,0,0,0,0,0,0,0,0,14.5,0,0,0,0,0,0,0,0,0,81,48,0,0,0,0,0,0,0,0,0,0,0,0,0,0,0,0,0,0,0,0,0,0,0,0,0,0,0,0,0,0,0,0,0,0,0,0,0,0,0,0,0,0,0,0,0,0,0,0,0,0,0,0,0,0,0,13,-0.1002846,0,22.57244,1.466175,0.02080338,5.371071,2.520082,1,9.408744
153.517,32.93267,3.005975,3.645876,-0.9835662,-2.444,-1.342331,90,90,0.2149517,6.264377,37.28227,0.216696,152.5261,2.245523,-0.03584927,-1.213619,-1.371071,-15.10258,267.8187,141.0984,-2.937714,9.780655,64.31373,1.06,1448,45,32,0,32.54902,32.94118,0.8407234,18.21139,0.09,9.062155,144.6169,346.5,5.671648,5.64518,314,50,3418,0.97,1.543544,1.3125,1.534272,1.308594,0,0,0,0,0,0,0,0,0,0,0,0,14.5,0,0,0,0,0,0,0,0,0,81,48,0,0,0,0,0,0,0,0,0,0,0,0,0,0,0,0,0,0,0,0,0,0,0,0,0,0,0,0,0,0,0,0,0,0,0,0,0,0,0,0,0,0,0,0,0,0,0,0,0,0,0,0,0,0,0,13,-0.1030088,0,22.38139,1.498414,0.02128644,5.377547,2.548902,1,9.408744
154.517,32.93267,3.005975,3.645876,0.418396,2.813675,-2.236923,90,90,0.2149517,6.264377,37.28227,0.216696,152.5261,2.245523,-0.1534925,0.8917552,1.036522,-15.33411,268.3987,141.6989,-3.230827,10.02043,64.31373,1.06,1448,45,32,0,32.54902,32.94118,0.8407234,18.21139,0.09,9.062155,144.6169,346.4,5.671648,5.64518,314,50,3418,0.97,1.543544,1.3125,1.534272,1.308594,0,0,0,0,0,0,0,0,0,0,0,0,14.5,0,0,0,0,0,0,0,0,0,81,48,0,0,0,0,0,0,0,0,0,0,0,0,0,0,0,0,0,0,0,0,0,0,0,0,0,0,0,0,0,0,0,0,0,0,0,0,0,0,0,0,0,0,0,0,0,0,0,0,0,0,0,0,0,0,0,13,-0.1030088,0,22.38139,1.498414,0.02128644,5.377547,2.548902,1,9.408744
155.527,33.55404,2.723844,3.64942,0.4600373,2.877747,-1.166794,90,90,0.143163,6.924565,37.28227,0.2202395,135.651,2.034765,-0.04459425,0.540485,-0.5159632,-16.08834,268.7937,142.28,-3.41787,10.16789,61.17647,1.1,1187,45,32,0,31.37255,31.37255,0.8422312,15.49216,0.13,8.211609,144.4628,346.3,5.044151,5.644526,314,50,3418,0.97,1.450824,1.167969,1.44936,1.171875,0,0,0,0,0,0,0,0,0,0,0,0,14.5,0,0,0,0,0,0,0,0,0,81,48,0,0,0,0,0,0,0,0,0,0,0,0,0,0,0,0,0,0,0,0,0,0,0,0,0,0,0,0,0,0,0,0,0,0,0,0,0,0,0,0,0,0,0,0,0,0,0,0,0,0,0,0,0,0,0,13,-0.08706145,0,21.03695,1.524541,0.02163453,5.371815,2.579048,1,9.408744
156.516,34.17542,2.30269,3.652514,-0.930481,-1.236511,-1.019897,90,90,0.1569149,5.949131,37.28227,0.2233337,112.5919,1.720155,0.08573309,0.0698227,-0.4062615,-15.37437,269.5622,142.6445,-4.163536,10.4698,71.37255,1.14,1168,45,32,0,31.76471,31.76471,0.9131069,15.79852,0.17,6.941949,143.8974,346.2,4.186705,5.642859,314,50,3418,0.97,1.457656,1.160156,1.452776,1.167969,0,0,0,0,0,0,0,0,0,0,0,0,14.5,0,0,0,0,0,0,0,0,0,81,48,0,0,0,0,0,0,0,0,0,0,0,0,0,0,0,0,0,0,0,0,0,0,0,0,0,0,0,0,0,0,0,0,0,0,0,0,0,0,0,0,0,0,0,0,0,0,0,0,0,0,0,0,0,0,0,13,-0.07162582,0,21.13601,1.552035,0.02193848,5.350789,2.60808,1,9.408744
157.519,34.17542,2.30269,3.652514,0.2737274,-1.031647,-2.008423,90,90,0.1569149,5.949131,37.28227,0.2233337,112.5919,1.720155,0.3052842,0.2784051,-0.2462366,-15.70104,268.9327,143.1584,-3.136864,11.91785,71.37255,1.14,1168,45,32,0,31.76471,31.76471,0.9131069,15.79852,0.17,6.941949,143.8974,346.1,4.186705,5.642859,314,50,3418,0.97,1.457656,1.160156,1.452776,1.167969,0,0,0,0,0,0,0,0,0,0,0,0,14.5,0,0,0,0,0,0,0,0,0,81,48,0,0,0,0,0,0,0,0,0,0,0,0,0,0,0,0,0,0,0,0,0,0,0,0,0,0,0,0,0,0,0,0,0,0,0,0,0,0,0,0,0,0,0,0,0,0,0,0,0,0,0,0,0,0,0,13,-0.07162582,0,21.13601,1.552035,0.02193848,5.350789,2.60808,1,9.408744
158.519,34.17542,2.30269,3.652514,0.3258667,-0.4588318,-1.289902,90,90,0.1569149,5.949131,37.28227,0.2233337,112.5919,1.720155,0.1656149,-0.1216839,-0.7234622,-15.32603,-89.98389,142.8415,-6.068069,13.21889,71.37255,1.14,1168,45,32,0,31.76471,31.76471,0.9131069,15.79852,0.17,6.941949,143.8974,346,4.186705,5.642859,314,50,3418,0.97,1.457656,1.160156,1.452776,1.167969,0,0,0,0,0,0,0,0,0,0,0,0,14.5,0,0,0,0,0,0,0,0,0,81,48,0,0,0,0,0,0,0,0,0,0,0,0,0,0,0,0,0,0,0,0,0,0,0,0,0,0,0,0,0,0,0,0,0,0,0,0,0,0,0,0,0,0,0,0,0,0,0,0,0,0,0,0,0,0,0,13,-0.07162582,0,21.13601,1.552035,0.02193848,5.350789,2.60808,1,9.408744
159.517,34.17542,2.30269,3.652514,1.224075,0.5352936,-0.4014893,90,90,0.1569149,5.949131,37.28227,0.2233337,112.5919,1.720155,-0.214248,-0.4890143,0.08686774,-15.54667,-89.61787,139.2,-5.779236,12.74448,71.37255,1.14,1168,45,32,0,31.76471,31.76471,0.9131069,15.79852,0.17,6.941949,143.8974,346,4.186705,5.642859,314,50,3418,0.97,1.457656,1.160156,1.452776,1.167969,0,0,0,0,0,0,0,0,0,0,0,0,14.5,0,0,0,0,0,0,0,0,0,81,48,0,0,0,0,0,0,0,0,0,0,0,0,0,0,0,0,0,0,0,0,0,0,0,0,0,0,0,0,0,0,0,0,0,0,0,0,0,0,0,0,0,0,0,0,0,0,0,0,0,0,0,0,0,0,0,13,-0.07162582,0,21.13601,1.552035,0.02193848,5.350789,2.60808,1,9.408744
160.518,34.79679,2.661403,3.655975,-1.328598,-0.6890564,-0.6549683,90,90,0.1570261,6.837835,37.28227,0.2267946,127.8078,1.988121,-0.255681,-0.2108106,-0.3368035,-15.42485,269.3359,143.2895,-3.214973,11.12956,66.27451,1.13,1174.5,44,31,0,23.92157,23.92157,0.9193015,15.74708,0.16,8.023368,143.6234,345.9,4.752502,5.641863,334,50,3419,0.97,1.657248,1.476563,1.650904,1.488281,0,0,0,0,0,0,0,0,0,0,0,0,12.94,0,0,0,0,0,0,0,0,0,83,47,0,0,0,0,0,0,0,0,0,0,0,0,0,0,0,0,0,0,0,0,0,0,0,0,0,0,0,0,0,0,0,0,0,0,0,0,0,0,0,0,0,0,0,0,0,0,0,0,0,0,0,0,0,0,0,13.1,-0.05565623,0,24.0301,1.579093,0.02227844,5.340601,2.6607,1,9.408744
161.514,34.79679,2.277323,3.661336,0.7944336,2.633072,-0.2549286,90,90,0.07984798,5.813908,37.28227,0.2321565,109.3632,1.701205,-0.1725051,0.03157526,0.1926131,-15.49477,269.1945,143.4281,-3.611214,10.82449,65.88235,1.1,1182,44,31,0,29.01961,29.41176,0.8398064,15.47555,0.13,6.865476,142.5917,345.8,4.066645,5.638664,334,50,3419,0.97,1.461072,1.164063,1.457656,1.183594,0,0,0,0,0,0,0,0,0,0,0,0,12.94,0,0,0,0,0,0,0,0,0,83,47,0,0,0,0,0,0,0,0,0,0,0,0,0,0,0,0,0,0,0,0,0,0,0,0,0,0,0,0,0,0,0,0,0,0,0,0,0,0,0,0,0,0,0,0,0,0,0,0,0,0,0,0,0,0,0,13.1,-0.008140354,0,21.18554,1.62812,0.02280515,5.302239,2.689512,1,9.408744
162.522,34.79679,2.277323,3.661336,1.008209,1.921173,0.08853149,90,90,0.07984798,5.813908,37.28227,0.2321565,109.3632,1.701205,0.08175839,-0.1453423,-1.505526,-15.42561,269.4778,143.2238,-3.742882,10.90034,65.88235,1.1,1182,44,31,0,29.01961,29.41176,0.8398064,15.47555,0.13,6.865476,142.5917,345.8,4.066645,5.638664,334,50,3419,0.97,1.461072,1.164063,1.457656,1.183594,0,0,0,0,0,0,0,0,0,0,0,0,12.94,0,0,0,0,0,0,0,0,0,83,47,0,0,0,0,0,0,0,0,0,0,0,0,0,0,0,0,0,0,0,0,0,0,0,0,0,0,0,0,0,0,0,0,0,0,0,0,0,0,0,0,0,0,0,0,0,0,0,0,0,0,0,0,0,0,0,13.1,-0.008140354,0,21.18554,1.62812,0.02280515,5.302239,2.689512,1,9.408744
163.515,35.41816,2.360264,3.664398,-3.576584,2.23967,-1.788223,90,90,0.07994253,5.913094,37.28227,0.235218,111.3577,1.763164,0.2251724,0.2964099,-0.0626815,-15.37771,269.3891,142.9859,-3.635063,10.27661,65.09804,1.12,1204.5,44,31,0,30.98039,31.37255,0.8700176,16.05686,0.15,7.115519,142.0718,345.7,4.14081,5.636957,334,50,3419,0.97,1.482544,1.207031,1.47376,1.214844,0,0,0,0,0,0,0,0,0,0,0,0,12.94,0,0,0,0,0,0,0,0,0,83,47,0,0,0,0,0,0,0,0,0,0,0,0,0,0,0,0,0,0,0,0,0,0,0,0,0,0,0,0,0,0,0,0,0,0,0,0,0,0,0,0,0,0,0,0,0,0,0,0,0,0,0,0,0,0,0,13,0.1519287,0,21.49689,1.655628,0.0231059,5.282906,2.719388,1,9.408744
164.521,35.41816,2.360264,3.664398,0.2450409,-2.395752,0.3367462,90,90,0.07994253,5.913094,37.28227,0.235218,111.3577,1.763164,0.02393759,-0.3328414,0.07185116,-15.53602,268.6465,143.2575,-3.575287,10.22028,65.09804,1.12,1204.5,44,31,0,30.98039,31.37255,0.8700176,16.05686,0.15,7.115519,142.0718,345.6,4.14081,5.636957,334,50,3419,0.97,1.482544,1.207031,1.47376,1.214844,0,0,0,0,0,0,0,0,0,0,0,0,12.94,0,0,0,0,0,0,0,0,0,83,47,0,0,0,0,0,0,0,0,0,0,0,0,0,0,0,0,0,0,0,0,0,0,0,0,0,0,0,0,0,0,0,0,0,0,0,0,0,0,0,0,0,0,0,0,0,0,0,0,0,0,0,0,0,0,0,13,0.1519287,0,21.49689,1.655628,0.0231059,5.282906,2.719388,1,9.408744
165.518,35.41816,2.566525,3.667859,-1.093094,-0.4252014,-0.3177338,90,90,0.07994253,6.384777,37.28227,0.2386785,121.0892,1.917245,0.04531882,-0.2079452,-0.3670497,-15.56308,268.5441,143.6613,-3.85775,10.2363,72.54902,1.15,1213,44,31,0,32.15686,31.37255,0.9395609,16.6033,0.18,7.737338,141.7176,345.7,4.502672,5.635623,334,50,3419,0.97,1.479616,1.199219,1.475712,1.199219,0,0,0,0,0,0,0,0,0,0,0,0,12.94,0,0,0,0,0,0,0,0,0,83,47,0,0,0,0,0,0,0,0,0,0,0,0,0,0,0,0,0,0,0,0,0,0,0,0,0,0,0,0,0,0,0,0,0,0,0,0,0,0,0,0,0,0,0,0,0,0,0,0,0,0,0,0,0,0,0,13,0.1519287,0,21.45443,1.684184,0.02344583,5.269736,2.748538,1,9.408744
166.520,35.41816,2.566525,3.667859,1.404221,2.880264,-0.07676696,90,90,0.07994253,6.384777,37.28227,0.2386785,121.0892,1.917245,0.08436216,-0.2508578,-0.5001867,-15.7335,268.1594,143.1112,-4.09877,11.73332,72.54902,1.15,1213,44,31,0,32.15686,31.37255,0.9395609,16.6033,0.18,7.737338,141.7176,345.7,4.502672,5.635623,334,50,3419,0.97,1.479616,1.199219,1.475712,1.199219,0,0,0,0,0,0,0,0,0,0,0,0,12.94,0,0,0,0,0,0,0,0,0,83,47,0,0,0,0,0,0,0,0,0,0,0,0,0,0,0,0,0,0,0,0,0,0,0,0,0,0,0,0,0,0,0,0,0,0,0,0,0,0,0,0,0,0,0,0,0,0,0,0,0,0,0,0,0,0,0,13,0.1519287,0,21.45443,1.684184,0.02344583,5.269736,2.748538,1,9.408744
167.519,36.03953,2.996185,3.671752,-2.926422,-0.7355652,-1.25618,90,90,0.07977972,7.423048,37.28227,0.2425722,138.9233,2.238209,-0.2520117,0.7913429,2.407908,-15.39861,267.0285,142.6494,-3.208992,10.88095,72.54902,1.18,1218,45,31,0,31.37255,31.37255,0.9773055,17.10666,0.21,9.032639,141.6701,345.7,5.165832,5.635075,334,50,3419,0.97,1.484008,1.203125,1.479128,1.214844,0,0,0,0,0,0,0,0,0,0,0,0,12.94,0,0,0,0,0,0,0,0,0,83,47,0,0,0,0,0,0,0,0,0,0,0,0,0,0,0,0,0,0,0,0,0,0,0,0,0,0,0,0,0,0,0,0,0,0,0,0,0,0,0,0,0,0,0,0,0,0,0,0,0,0,0,0,0,0,0,13,0.1527114,0,21.51812,1.712232,0.02382831,5.267971,2.783922,1,9.408744
168.540,36.03953,2.996185,3.671752,1.269577,-1.386368,0.5514832,90,90,0.07977972,7.423048,37.28227,0.2425722,138.9233,2.238209,0.3196551,-0.2750161,-0.06849166,-15.72522,268.2499,142.7498,-3.34462,11.23524,72.54902,1.18,1218,45,31,0,31.37255,31.37255,0.9773055,17.10666,0.21,9.032639,141.6701,345.6,5.165832,5.635075,334,50,3419,0.97,1.484008,1.203125,1.479128,1.214844,0,0,0,0,0,0,0,0,0,0,0,0,12.94,0,0,0,0,0,0,0,0,0,83,47,0,0,0,0,0,0,0,0,0,0,0,0,0,0,0,0,0,0,0,0,0,0,0,0,0,0,0,0,0,0,0,0,0,0,0,0,0,0,0,0,0,0,0,0,0,0,0,0,0,0,0,0,0,0,0,13,0.1527114,0,21.51812,1.712232,0.02382831,5.267971,2.783922,1,9.408744
169.517,36.6609,2.671297,3.676,3.125443,1.626419,0.5907745,90,90,0.145048,6.529683,37.28227,0.24682,121.76,1.995512,-0.4527492,-0.2828109,-0.5040314,-15.74145,267.9979,142.9831,-3.667976,10.44632,64.31373,1.11,1234.5,45,31,0,30.19608,31.76471,0.8704918,16.25858,0.14,8.053196,141.2735,345.7,4.527619,5.633485,334,50,3419,0.97,1.492304,1.21875,1.486936,1.230469,0,0,0,0,0,0,0,0,0,0,0,0,12.94,0,0,0,0,0,0,0,0,0,83,47,0,0,0,0,0,0,0,0,0,0,0,0,0,0,0,0,0,0,0,0,0,0,0,0,0,0,0,0,0,0,0,0,0,0,0,0,0,0,0,0,0,0,0,0,0,0,0,0,0,0,0,0,0,0,0,13,0.135341,0,21.63841,1.747107,0.02424558,5.253224,2.813083,1,9.408744
170.516,36.6609,2.671297,3.676,0.3093109,3.647049,0.4697571,90,90,0.145048,6.529683,37.28227,0.24682,121.76,1.995512,-0.04086951,-0.2237878,-1.597591,-15.63973,269.3889,143.1411,-4.500397,10.54156,64.31373,1.11,1234.5,45,31,0,30.19608,31.76471,0.8704918,16.25858,0.14,8.053196,141.2735,345.7,4.527619,5.633485,334,50,3419,0.97,1.492304,1.21875,1.486936,1.230469,0,0,0,0,0,0,0,0,0,0,0,0,12.94,0,0,0,0,0,0,0,0,0,83,47,0,0,0,0,0,0,0,0,0,0,0,0,0,0,0,0,0,0,0,0,0,0,0,0,0,0,0,0,0,0,0,0,0,0,0,0,0,0,0,0,0,0,0,0,0,0,0,0,0,0,0,0,0,0,0,13,0.135341,0,21.63841,1.747107,0.02424558,5.253224,2.813083,1,9.408744
171.518,36.6609,2.403835,3.679122,0.9163055,-1.029419,0.3277588,90,90,0.06526827,5.817001,37.28227,0.2499422,109.5689,1.795712,-0.2389535,0.5203609,0.5783458,-15.68668,269.989,142.3277,-5.177315,10.70731,69.80392,1.11,1247,45,31,0,31.37255,32.94118,0.8718287,16.42321,0.14,7.246872,140.7679,345.9,4.074293,5.631666,334,50,3419,0.97,1.477176,1.207031,1.471808,1.21875,0,0,0,0,0,0,0,0,0,0,0,0,12.94,0,0,0,0,0,0,0,0,0,83,47,0,0,0,0,0,0,0,0,0,0,0,0,0,0,0,0,0,0,0,0,0,0,0,0,0,0,0,0,0,0,0,0,0,0,0,0,0,0,0,0,0,0,0,0,0,0,0,0,0,0,0,0,0,0,0,13,0.1050359,0,21.41905,1.775562,0.02455228,5.234423,2.842896,1,9.408744
172.518,36.6609,2.60904,3.682701,-2.588562,-2.547165,0.3972931,90,90,3.191891E-16,6.238532,37.28227,0.2535213,118.9223,1.949005,-0.6101445,-0.04023986,-1.598231,-15.5976,-89.51093,141.6931,-5.145164,10.31258,77.64706,1.13,1262,45,31,0,32.94118,32.94118,0.8630894,16.92024,0.16,7.865508,140.4145,345.9,4.422098,5.6302,334,50,3419,0.97,1.385432,1.03125,1.380552,1.027344,0,0,0,0,0,0,0,0,0,0,0,0,12.94,0,0,0,0,0,0,0,0,0,83,47,0,0,0,0,0,0,0,0,0,0,0,0,0,0,0,0,0,0,0,0,0,0,0,0,0,0,0,0,0,0,0,0,0,0,0,0,0,0,0,0,0,0,0,0,0,0,0,0,0,0,0,0,0,0,0,13,0.09235068,0,20.08876,1.805521,0.02490386,5.22128,2.872353,1,9.408744
173.535,36.6609,2.60904,3.682701,-0.913681,1.101242,0.3618164,90,90,3.191891E-16,6.238532,37.28227,0.2535213,118.9223,1.949005,0.445978,-0.266844,-0.7676372,-15.5666,-89.87586,141.465,-5.525833,10.59892,77.64706,1.13,1262,45,31,0,32.94118,32.94118,0.8630894,16.92024,0.16,7.865508,140.4145,346,4.422098,5.6302,334,50,3419,0.97,1.385432,1.03125,1.380552,1.027344,0,0,0,0,0,0,0,0,0,0,0,0,12.94,0,0,0,0,0,0,0,0,0,83,47,0,0,0,0,0,0,0,0,0,0,0,0,0,0,0,0,0,0,0,0,0,0,0,0,0,0,0,0,0,0,0,0,0,0,0,0,0,0,0,0,0,0,0,0,0,0,0,0,0,0,0,0,0,0,0,13,0.09235068,0,20.08876,1.805521,0.02490386,5.22128,2.872353,1,9.408744
174.517,36.6609,2.60904,3.682701,-1.810226,-2.143738,1.371094,90,90,3.191891E-16,6.238532,37.28227,0.2535213,118.9223,1.949005,0.4368474,-0.164737,0.3490552,-15.08911,269.5855,140.6166,-6.068657,10.30209,77.64706,1.13,1262,45,31,0,32.94118,32.94118,0.8630894,16.92024,0.16,7.865508,140.4145,346,4.422098,5.6302,334,50,3419,0.97,1.385432,1.03125,1.380552,1.027344,0,0,0,0,0,0,0,0,0,0,0,0,12.94,0,0,0,0,0,0,0,0,0,83,47,0,0,0,0,0,0,0,0,0,0,0,0,0,0,0,0,0,0,0,0,0,0,0,0,0,0,0,0,0,0,0,0,0,0,0,0,0,0,0,0,0,0,0,0,0,0,0,0,0,0,0,0,0,0,0,13,0.09235068,0,20.08876,1.805521,0.02490386,5.22128,2.872353,1,9.408744
175.519,37.28227,3.149911,3.686799,1.690002,-2.113998,1.893051,90,90,0.07935385,7.475545,37.28227,0.2576185,141.1827,2.353046,0.7480913,-0.5481462,0.1258377,-15.01721,268.8307,140.4159,-6.138718,10.2348,70.19608,1.17,1271.5,44,31,0,34.11765,33.72549,0.9256253,17.65106,0.2,9.496078,140.4152,346.1,5.249847,5.629713,334,50,3419,0.97,2.377048,2.195313,1.808528,1.738281,0,0,0,0,0,0,0,0,0,0,0,0,12.94,0,0,0,0,0,0,0,0,0,83,47,0,0,0,0,0,0,0,0,0,0,0,0,0,0,0,0,0,0,0,0,0,0,0,0,0,0,0,0,0,0,0,0,0,0,0,0,0,0,0,0,0,0,0,0,0,0,0,0,0,0,0,0,0,0,0,12.9,0.0922741,0,34.4672,1.834691,0.02530634,5.221305,2.911522,1,9.408744
176.517,36.6609,1.939523,3.690184,0.9451904,-0.3265991,1.572067,90,90,0.01974293,4.809116,37.28227,0.2610044,88.40513,1.448862,0.5358397,0.05023499,0.2768339,-14.12617,269.6743,139.8648,-7.006271,10.12415,0,1.04,1217,44,31,0,15.29412,14.90196,0.6237632,15.06468,0.07,5.847105,139.3602,346,3.287324,5.626061,334,50,3419,0.97,15.9903,3.785156,14.83178,3.730469,0,0,0,0,0,0,0,0,0,0,0,0,12.94,0,0,0,0,0,0,0,0,0,83,47,0,0,0,0,0,0,0,0,0,0,0,0,0,0,0,0,0,0,0,0,0,0,0,0,0,0,0,0,0,0,0,0,0,0,0,0,0,0,0,0,0,0,0,0,0,0,0,0,0,0,0,0,0,0,0,12.9,0.06491629,0,231.8593,1.872876,0.02563894,5.182076,2.940365,1,9.408744
177.521,36.6609,1.939523,3.690184,0.3038788,3.248383,1.657501,90,90,0.01974293,4.809116,37.28227,0.2610044,88.40513,1.448862,-0.5170739,-0.2797137,0.008178615,-13.96091,269.4045,139.2164,-6.825623,9.967514,0,1.04,1217,44,31,0,15.29412,14.90196,0.6237632,15.06468,0.07,5.847105,139.3602,346,3.287324,5.626061,334,50,3419,0.97,15.9903,3.785156,14.83178,3.730469,0,0,0,0,0,0,0,0,0,0,0,0,12.94,0,0,0,0,0,0,0,0,0,83,47,0,0,0,0,0,0,0,0,0,0,0,0,0,0,0,0,0,0,0,0,0,0,0,0,0,0,0,0,0,0,0,0,0,0,0,0,0,0,0,0,0,0,0,0,0,0,0,0,0,0,0,0,0,0,0,12.9,0.06491629,0,231.8593,1.872876,0.02563894,5.182076,2.940365,1,9.408744
178.517,36.6609,1.939523,3.690184,-0.2866058,-1.122482,1.616913,90,90,0.01974293,4.809116,37.28227,0.2610044,88.40513,1.448862,-0.07200532,0.1389061,-1.131118,-14.0939,269.3421,138.5089,-7.042542,9.784698,0,1.04,1217,44,31,0,15.29412,14.90196,0.6237632,15.06468,0.07,5.847105,139.3602,345.9,3.287324,5.626061,334,50,3419,0.97,15.9903,3.785156,14.83178,3.730469,0,0,0,0,0,0,0,0,0,0,0,0,12.94,0,0,0,0,0,0,0,0,0,83,47,0,0,0,0,0,0,0,0,0,0,0,0,0,0,0,0,0,0,0,0,0,0,0,0,0,0,0,0,0,0,0,0,0,0,0,0,0,0,0,0,0,0,0,0,0,0,0,0,0,0,0,0,0,0,0,12.9,0.06491629,0,231.8593,1.872876,0.02563894,5.182076,2.940365,1,9.408744
179.602,32.93267,0,3.690184,-0.1802979,2.650314,0.3553467,90,90,-0.5388194,0,37.28227,0.2610044,0,0,-0.2521165,0.819728,0.2148398,-14.4903,268.8548,137.739,-6.866676,9.777817,3.921569,1.01,1092.5,44,31,0,16.07843,24.70588,1.038987,13.13345,0.04,0,137.4809,346.1,0,5.620162,353,50,3419,0.97,1.586488,1.382813,1.598688,1.414063,0,0,0,0,0,0,0,0,0,0,0,0,13.6,0,0,0,0,0,0,0,0,0,83,48,0,0,0,0,0,0,0,0,0,0,0,0,0,0,0,0,0,0,0,0,0,0,0,0,0,0,0,0,0,0,0,0,0,0,0,0,0,0,0,0,0,0,0,0,0,0,0,0,0,0,0,0,0,0,0,13,-0.04689501,0,23.00408,1.898478,0.02563894,5.112195,2.977902,1,9.408744
180.579,32.3113,0.1621855,3.690457,1.208832,2.450485,0.3416443,90,90,-0.5406514,0.3429644,37.28227,0.2612769,8.387707,0.1211558,0.006773239,0.7797536,0.7619807,-14.72355,268.9463,137.5632,-6.811218,9.701981,70.58823,1.18,1427,44,31,0,34.11765,35.68628,1.086638,20.04204,0.21,0.4889428,135.2975,346.2,0.3118949,5.61307,353,50,3419,0.97,1.38592,1.046875,1.407392,1.085938,0,0,0,0,0,0,0,0,0,0,0,0,13.6,0,0,0,0,0,0,0,0,0,83,48,0,0,0,0,0,0,0,0,0,0,0,0,0,0,0,0,0,0,0,0,0,0,0,0,0,0,0,0,0,0,0,0,0,0,0,0,0,0,0,0,0,0,0,0,0,0,0,0,0,0,0,0,0,0,0,13,-0.05918359,0,20.09584,1.931129,0.02566571,5.031006,3.008189,1,9.408744
181.515,32.3113,0.1621855,3.690457,0.9035339,-1.342422,1.109161,90,90,-0.5406514,0.3429644,37.28227,0.2612769,8.387707,0.1211558,0.03917954,-0.4106207,-0.335008,-15.12025,268.847,137.4884,-6.76474,9.370544,70.58823,1.18,1427,44,31,0,34.11765,35.68628,1.086638,20.04204,0.21,0.4889428,135.2975,346.2,0.3118949,5.61307,353,50,3419,0.97,1.38592,1.046875,1.407392,1.085938,0,0,0,0,0,0,0,0,0,0,0,0,13.6,0,0,0,0,0,0,0,0,0,83,48,0,0,0,0,0,0,0,0,0,0,0,0,0,0,0,0,0,0,0,0,0,0,0,0,0,0,0,0,0,0,0,0,0,0,0,0,0,0,0,0,0,0,0,0,0,0,0,0,0,0,0,0,0,0,0,13,-0.05918359,0,20.09584,1.931129,0.02566571,5.031006,3.008189,1,9.408744
182.515,32.3113,0.1621855,3.690457,-1.58342,0.150177,1.973618,90,90,-0.5406514,0.3429644,37.28227,0.2612769,8.387707,0.1211558,0.001400915,0.009175438,0.2640613,-15.10171,268.4083,136.7285,-6.702293,8.927414,70.58823,1.18,1427,44,31,0,34.11765,35.68628,1.086638,20.04204,0.21,0.4889428,135.2975,346.2,0.3118949,5.61307,353,50,3419,0.97,1.38592,1.046875,1.407392,1.085938,0,0,0,0,0,0,0,0,0,0,0,0,13.6,0,0,0,0,0,0,0,0,0,83,48,0,0,0,0,0,0,0,0,0,0,0,0,0,0,0,0,0,0,0,0,0,0,0,0,0,0,0,0,0,0,0,0,0,0,0,0,0,0,0,0,0,0,0,0,0,0,0,0,0,0,0,0,0,0,0,13,-0.05918359,0,20.09584,1.931129,0.02566571,5.031006,3.008189,1,9.408744
183.512,32.93267,2.838763,3.694402,-0.687973,2.496185,1.342117,90,90,0.01324675,5.905713,37.28227,0.2652218,144.0416,2.120612,-0.3547824,-0.08533514,0.704823,-15.36681,267.366,136.0934,-6.408997,8.956894,70.98039,1.1,1450.5,44,31,0,32.94118,32.54902,0.8089597,18.99093,0.13,8.558056,135.4205,346.2,5.356152,5.612785,353,50,3419,0.97,1.487912,1.222656,1.487424,1.230469,0,0,0,0,0,0,0,0,0,0,0,0,13.6,0,0,0,0,0,0,0,0,0,83,48,0,0,0,0,0,0,0,0,0,0,0,0,0,0,0,0,0,0,0,0,0,0,0,0,0,0,0,0,0,0,0,0,0,0,0,0,0,0,0,0,0,0,0,0,0,0,0,0,0,0,0,0,0,0,0,13,-0.06023417,0,21.57472,1.958506,0.02605323,5.035581,3.04406,1,9.408744
184.517,33.55404,2.623927,3.698515,-1.990173,-1.539642,0.4143677,90,90,0.1408899,6.710127,37.28227,0.2693349,130.675,1.960125,-0.3087272,-0.1866265,-0.1047459,-15.12582,267.4992,135.4879,-6.480042,8.685745,72.54902,1.14,1180,44,31,0,34.11765,35.68628,0.7315597,16.01116,0.17,7.910388,135.3458,346.2,4.85912,5.611818,353,50,3419,0.97,1.252208,0.7421875,1.247328,0.7382813,0,0,0,0,0,0,0,0,0,0,0,0,13.6,0,0,0,0,0,0,0,0,0,83,48,0,0,0,0,0,0,0,0,0,0,0,0,0,0,0,0,0,0,0,0,0,0,0,0,0,0,0,0,0,0,0,0,0,0,0,0,0,0,0,0,0,0,0,0,0,0,0,0,0,0,0,0,0,0,0,13,-0.04699412,0,18.15702,1.989976,0.02645726,5.032803,3.072819,1,9.408744
185.518,33.55404,2.623927,3.698515,2.149277,2.412903,0.7885895,90,90,0.1408899,6.710127,37.28227,0.2693349,130.675,1.960125,0.08046988,-0.09587573,0.3080661,-15.41863,267.6288,134.9814,-6.880234,8.349533,72.54902,1.14,1180,44,31,0,34.11765,35.68628,0.7315597,16.01116,0.17,7.910388,135.3458,346.1,4.85912,5.611818,353,50,3419,0.97,1.252208,0.7421875,1.247328,0.7382813,0,0,0,0,0,0,0,0,0,0,0,0,13.6,0,0,0,0,0,0,0,0,0,83,48,0,0,0,0,0,0,0,0,0,0,0,0,0,0,0,0,0,0,0,0,0,0,0,0,0,0,0,0,0,0,0,0,0,0,0,0,0,0,0,0,0,0,0,0,0,0,0,0,0,0,0,0,0,0,0,13,-0.04699412,0,18.15702,1.989976,0.02645726,5.032803,3.072819,1,9.408744
186.516,34.79679,2.894259,3.702271,-0.03620911,-0.6268311,0.741684,90,90,0.226396,7.464704,37.28227,0.2730907,138.9901,2.162069,-0.1243747,-0.3232395,-0.9869865,-15.38399,267.1652,134.7334,-6.253601,8.080505,70.98039,1.17,1170,44,31,0,29.80392,30.19608,0.9704608,16.29325,0.2,8.725362,135.3979,346.1,5.168316,5.611341,353,50,3419,0.97,1.51036,1.226563,1.496208,1.234375,0,0,0,0,0,0,0,0,0,0,0,0,13.6,0,0,0,0,0,0,0,0,0,83,48,0,0,0,0,0,0,0,0,0,0,0,0,0,0,0,0,0,0,0,0,0,0,0,0,0,0,0,0,0,0,0,0,0,0,0,0,0,0,0,0,0,0,0,0,0,0,0,0,0,0,0,0,0,0,0,13,-0.03091091,0,21.90022,2.016949,0.0268262,5.03474,3.105096,1,9.408744
187.517,34.79679,2.894259,3.702271,-1.164658,-1.407181,-0.07434082,90,90,0.226396,7.464704,37.28227,0.2730907,138.9901,2.162069,-0.2406695,-0.4555802,0.131046,-15.61929,267.3054,134.6655,-6.319977,8.428696,70.98039,1.17,1170,44,31,0,29.80392,30.19608,0.9704608,16.29325,0.2,8.725362,135.3979,346,5.168316,5.611341,353,50,3419,0.97,1.51036,1.226563,1.496208,1.234375,0,0,0,0,0,0,0,0,0,0,0,0,13.6,0,0,0,0,0,0,0,0,0,83,48,0,0,0,0,0,0,0,0,0,0,0,0,0,0,0,0,0,0,0,0,0,0,0,0,0,0,0,0,0,0,0,0,0,0,0,0,0,0,0,0,0,0,0,0,0,0,0,0,0,0,0,0,0,0,0,13,-0.03091091,0,21.90022,2.016949,0.0268262,5.03474,3.105096,1,9.408744
188.514,35.41816,2.711184,3.706169,-0.2391205,1.457016,-0.423111,90,90,0.2323926,6.803538,37.28227,0.2769889,127.9142,2.025308,-0.3089502,-0.2604093,0.008564547,-15.48904,266.7634,134.2787,-6.064621,8.196594,74.11765,1.13,1202.5,44,31,0,32.15686,32.94118,0.9371061,16.17333,0.16,8.173442,135.2876,346,4.756459,5.610284,353,50,3419,0.97,1.29076,0.8242188,1.27124,0.7851563,0,0,0,0,0,0,0,0,0,0,0,0,13.6,0,0,0,0,0,0,0,0,0,83,48,0,0,0,0,0,0,0,0,0,0,0,0,0,0,0,0,0,0,0,0,0,0,0,0,0,0,0,0,0,0,0,0,0,0,0,0,0,0,0,0,0,0,0,0,0,0,0,0,0,0,0,0,0,0,0,13,-0.0295252,0,18.71602,2.047408,0.02720913,5.030636,3.133893,1,9.408744
189.516,35.41816,2.711184,3.706169,0.6657715,0.7842712,-0.4821167,90,90,0.2323926,6.803538,37.28227,0.2769889,127.9142,2.025308,0.007979881,-0.7127755,-0.9608023,-15.67681,266.0491,134.6146,-5.574043,7.349579,74.11765,1.13,1202.5,44,31,0,32.15686,32.94118,0.9371061,16.17333,0.16,8.173442,135.2876,346,4.756459,5.610284,353,50,3419,0.97,1.29076,0.8242188,1.27124,0.7851563,0,0,0,0,0,0,0,0,0,0,0,0,13.6,0,0,0,0,0,0,0,0,0,83,48,0,0,0,0,0,0,0,0,0,0,0,0,0,0,0,0,0,0,0,0,0,0,0,0,0,0,0,0,0,0,0,0,0,0,0,0,0,0,0,0,0,0,0,0,0,0,0,0,0,0,0,0,0,0,0,13,-0.0295252,0,18.71602,2.047408,0.02720913,5.030636,3.133893,1,9.408744
190.510,36.03953,3.078322,3.710161,-0.4704437,-0.1896973,-0.09342957,90,90,0.1519341,7.524609,37.28227,0.2809815,142.7318,2.299567,-0.1109282,0.04079527,-1.052604,-15.68272,265.9183,134.729,-4.939247,7.343002,78.82353,1.19,1234.5,44,31,0,33.72549,33.72549,0.9914286,17.48533,0.22,9.280258,135.382,345.9,5.307447,5.609919,353,50,3419,0.97,1.342488,0.9453125,1.336632,0.9375,0,0,0,0,0,0,0,0,0,0,0,0,13.6,0,0,0,0,0,0,0,0,0,83,48,0,0,0,0,0,0,0,0,0,0,0,0,0,0,0,0,0,0,0,0,0,0,0,0,0,0,0,0,0,0,0,0,0,0,0,0,0,0,0,0,0,0,0,0,0,0,0,0,0,0,0,0,0,0,0,13,-0.01357775,0,19.46608,2.075471,0.02760132,5.034148,3.16884,1,9.408744
191.512,36.03953,3.078322,3.710161,1.400314,0.2266235,-0.4522858,90,90,0.1519341,7.524609,37.28227,0.2809815,142.7318,2.299567,-0.2747391,0.9812602,0.6935496,-15.55335,266.5991,134.0697,-5.620712,7.679047,78.82353,1.19,1234.5,44,31,0,33.72549,33.72549,0.9914286,17.48533,0.22,9.280258,135.382,346,5.307447,5.609919,353,50,3419,0.97,1.342488,0.9453125,1.336632,0.9375,0,0,0,0,0,0,0,0,0,0,0,0,13.6,0,0,0,0,0,0,0,0,0,83,48,0,0,0,0,0,0,0,0,0,0,0,0,0,0,0,0,0,0,0,0,0,0,0,0,0,0,0,0,0,0,0,0,0,0,0,0,0,0,0,0,0,0,0,0,0,0,0,0,0,0,0,0,0,0,0,13,-0.01357775,0,19.46608,2.075471,0.02760132,5.034148,3.16884,1,9.408744
192.512,36.6609,3.375283,3.71545,1.43013,-3.818954,-0.09915161,90,90,0.1459713,8.061131,37.28227,0.2862702,153.8483,2.521403,0.07720944,-0.6235173,-0.2833715,-15.76709,265.3605,134.1353,-4.65313,7.347961,73.33334,1.19,1263.5,44,31,0,34.11765,33.72549,0.9956744,17.89609,0.22,10.17551,135.6835,345.9,5.720815,5.610076,353,50,3419,0.97,1.414224,1.078125,1.406904,1.085938,0,0,0,0,0,0,0,0,0,0,0,0,13.6,0,0,0,0,0,0,0,0,0,83,48,0,0,0,0,0,0,0,0,0,0,0,0,0,0,0,0,0,0,0,0,0,0,0,0,0,0,0,0,0,0,0,0,0,0,0,0,0,0,0,0,0,0,0,0,0,0,0,0,0,0,0,0,0,0,0,13,-0.0003309502,0,20.50625,2.109838,0.02812084,5.045359,3.197895,1,9.408744
193.510,36.6609,3.375283,3.71545,0.8083801,-3.097839,-0.582016,90,90,0.1459713,8.061131,37.28227,0.2862702,153.8483,2.521403,-0.3373684,-0.2147225,-0.5973618,-15.60073,266.0207,134.4142,-5.797401,7.603745,73.33334,1.19,1263.5,44,31,0,34.11765,33.72549,0.9956744,17.89609,0.22,10.17551,135.6835,345.8,5.720815,5.610076,353,50,3419,0.97,1.414224,1.078125,1.406904,1.085938,0,0,0,0,0,0,0,0,0,0,0,0,13.6,0,0,0,0,0,0,0,0,0,83,48,0,0,0,0,0,0,0,0,0,0,0,0,0,0,0,0,0,0,0,0,0,0,0,0,0,0,0,0,0,0,0,0,0,0,0,0,0,0,0,0,0,0,0,0,0,0,0,0,0,0,0,0,0,0,0,13,-0.0003309502,0,20.50625,2.109838,0.02812084,5.045359,3.197895,1,9.408744
194.511,37.28227,2.944866,3.71929,-1.130447,0.4438019,-0.5886688,90,90,0.1457883,6.994423,37.28227,0.2901099,131.9924,2.199873,0.2340302,-0.04180291,0.4607336,-15.31904,265.6566,134.446,-5.140594,6.748505,70.58823,1.15,1270.5,44,31,0,30.98039,30.98039,0.9123112,17.39035,0.18,8.877928,135.6329,345.8,4.908106,5.609246,353,50,3419,0.97,1.461072,1.164063,1.448384,1.152344,0,0,0,0,0,0,0,0,0,0,0,0,13.6,0,0,0,0,0,0,0,0,0,83,48,0,0,0,0,0,0,0,0,0,0,0,0,0,0,0,0,0,0,0,0,0,0,0,0,0,0,0,0,0,0,0,0,0,0,0,0,0,0,0,0,0,0,0,0,0,0,0,0,0,0,0,0,0,0,0,13,-0.0002908559,0,21.18554,2.138935,0.02849803,5.043477,3.228015,1,9.408744
195.511,37.90364,2.787111,3.723027,-1.61203,2.23616,-0.01998901,90,90,0.156909,6.547585,37.90364,0.2938473,122.8737,2.082027,-0.1667755,-0.0181706,0.638581,-15.53904,264.6498,134.5402,-4.189255,7.429825,68.62745,1.12,1284.5,44,31,0,30.98039,31.37255,0.8920751,17.12332,0.15,8.402342,135.4535,345.9,4.569031,5.607963,353,50,3419,0.97,1.490352,1.226563,1.487424,1.234375,0,0,0,0,0,0,0,0,0,0,0,0,13.6,0,0,0,0,0,0,0,0,0,83,48,0,0,0,0,0,0,0,0,0,0,0,0,0,0,0,0,0,0,0,0,0,0,0,0,0,0,0,0,0,0,0,0,0,0,0,0,0,0,0,0,0,0,0,0,0,0,0,0,0,0,0,0,0,0,0,13,0.02710227,0,21.6101,2.169358,0.02886515,5.036808,3.256902,1,9.408744
