Time (sec),Vehicle speed (MPH),Fuel rate (l/hr),Total CO2 (kg), Rotation Rate X (deg/s), Rotation Rate Y (deg/s), Rotation Rate Z (deg/s), Engine coolant temperature (°C),Engine coolant temperature 1 (°C),Acceleration (m/s²),Engine Torque (kg•m),Max Speed (MPH),Total Trip CO2 (kg),Instant CO2 rate (g/km),CO2 flow (g/s), Accel X (m/s²), Accel Y (m/s²), Accel Z (m/s²), Roll (deg), Pitch (deg),Magnetometer X (µT), Magnetometer Y (µT), Magnetometer Z (µT),Calculated load value (%), Intake manifold absolute pressure (bar), Engine RPM (RPM), Intake air temperature (°C), Ambient air temperature (°C), Absolute throttle position B (%), Accelerator pedal position D (%), Accelerator pedal position E (%), Intake manifold absolute pressure (bar), Mass air flow rate (g/s), Boost (bar),Engine Power (kW),Average Trip CO2 Rate (g/km),Altitude (m),Instant fuel economy (l/100 km),Total fuel economy (l/100 km), Time since engine start (sec), Number of warm-ups since DTCs cleared, Distance traveled since DTCs cleared (km), Barometric pressure (bar),O2 sensor lambda wide range (current probe)  (Bank 1  Sensor 1),O2 sensor current wide range (Bank 1  Sensor 1) (mA),O2 sensor lambda wide range (current probe)  (Bank 1  Sensor 2),O2 sensor current wide range (Bank 1  Sensor 2) (mA),O2 sensor lambda wide range (current probe)  (Bank 1  Sensor 3),O2 sensor current wide range (Bank 1  Sensor 3) (mA),O2 sensor lambda wide range (current probe)  (Bank 1  Sensor 4),O2 sensor current wide range (Bank 1  Sensor 4) (mA),O2 sensor lambda wide range (current probe)  (Bank 2  Sensor 1),O2 sensor current wide range (Bank 2  Sensor 1) (mA),O2 sensor lambda wide range (current probe)  (Bank 2  Sensor 2),O2 sensor current wide range (Bank 2  Sensor 2) (mA),O2 sensor lambda wide range (current probe)  (Bank 2  Sensor 3),O2 sensor current wide range (Bank 2  Sensor 3) (mA),O2 sensor lambda wide range (current probe)  (Bank 2  Sensor 4),O2 sensor current wide range (Bank 2  Sensor 4) (mA), Control module voltage (V), Absolute throttle position C (%), Mass air flow sensor B (g/s), Relative throttle B position (%), Commanded boost pressure A (bar), Boost pressure sensor A (bar), Commanded boost pressure B (bar), Boost pressure sensor B (bar), Boost pressure A control status, Boost pressure B control status,Charge air cooler temperature bank 1  sensor 1 (°C),Charge air cooler temperature bank 1  sensor 2 (°C), Manifold surface temperature (°C), Intake manifold absolute pressure A (bar), Intake manifold absolute pressure B (bar),Total run time with EI-AECD #11 Timer 1 active (sec),Total run time with EI-AECD #11 Timer 2 active (sec),Total run time with EI-AECD #12 Timer 1 active (sec),Total run time with EI-AECD #12 Timer 2 active (sec), Diesel aftertreatment status,O2 sensor concentration bank 1 sensor 1 (%),O2 sensor concentration bank 1 sensor 2 (%),O2 sensor concentration bank 2 sensor 1 (%),O2 sensor concentration bank 2 sensor 2 (%), Absolute throttle position G (%),Target SCR Catalyst NH3 Storage A (g/L),Actual/Modelled SCR Catalyst NH3 Storage A (g/L),Target SCR Catalyst NH3 Storage B (g/L),Actual/Modelled SCR Catalyst NH3 Storage B (g/L), Hydrocarbon Doser Flow Rate (g/min), Hydrocarbon Doser Injector Duty Cycle (%),O2 sensor concentration bank 1 sensor 3 (%),O2 sensor concentration bank 1 sensor 4 (%),O2 sensor concentration bank 2 sensor 3 (%),O2 sensor concentration bank 2 sensor 4 (%),O2 sensor lambda bank 1 sensor 3,O2 sensor lambda bank 1 sensor 4,O2 sensor lambda bank 2 sensor 3,O2 sensor lambda bank 2 sensor 4, Engine Fuel Rate (g/s), Vehicle Fuel Rate (g/s), Engine Exhaust Flow Rate (g/s),Fuel System A Use Percentage Bank 1 (%),Fuel System A Use Percentage Bank 2 (%), Cylinder Fuel Rate, Transmission Actual Gear Status, Transmission Actual Gear Ratio, Vehicle Odometer Reading (km), Motorcycle ABS Disable Switch State, Maximum Current Vehicle Speed Limit (MPH), Alternative Fuel Tank Pressure (bar), Alternative Fuel Tank Temperature (°C),Crankcase Pressure Sensor (inH2O),Fuel System Status Bank 1,Fuel System Status Bank 2,Short Term Fuel Trim Bank 1 (%),Long Term Fuel Trim Bank 1 (%),Short Term Fuel Trim Bank 2 (%),Long Term Fuel Trim Bank 2 (%),O2 Sensor Concentration Bank 1 Sensor 5 (%),O2 Sensor Concentration Bank 1 Sensor 6 (%),O2 Sensor Concentration Bank 2 Sensor 5 (%),O2 Sensor Concentration Bank 2 Sensor 6 (%),O2 Sensor Lambda Bank 1 Sensor 5,O2 Sensor Lambda Bank 1 Sensor 6,O2 Sensor Lambda Bank 2 Sensor 5,O2 Sensor Lambda Bank 2 Sensor 6, Input voltage read by the scan tool (V), Acceleration (Avg) (m/s²), A/F Commanded, A/F Actual,Trip Distance (km), Trip Fuel (gal),Trip Fuel Economy (l/100 km),Trip Duration (min), Idling Count, Seconds Idling (sec)
0.000,0,0,0,-8.971878,2.419983,-19.1129,0,0,0,0,0,0,0,0,-0.0497328,0.3937925,-0.7615512,8.204478,-38.47683,-25.76708,5.786814,-15.22223,0,0,0,0,0,0,0,0,0,0,0,0,0,344.2,0,0,0,0,0,0,0,0,0,0,0,0,0,0,0,0,0,0,0,0,0,0,0,0,0,0,0,0,0,0,0,0,0,0,0,0,0,0,0,0,0,0,0,0,0,0,0,0,0,0,0,0,0,0,0,0,0,0,0,0,0,0,0,0,0,0,0,0,0,0,0,0,0,0,0,0,0,0,0,0,0,0,0,0,0,0,0,0,0,0,0,0,0,0,0,0,0,0,0
1.000,0,0,0,-10.75793,-0.4908142,-10.52213,0,0,0,0,0,0,0,0,-0.7216386,0.1039099,0.4842241,3.687364,-39.22325,-32.77496,3.754587,-9.132309,0,0,0,0,0,0,0,0,0,0,0,0,0,344.2,0,0,0,0,0,0,0,0,0,0,0,0,0,0,0,0,0,0,0,0,0,0,0,0,0,0,0,0,0,0,0,0,0,0,0,0,0,0,0,0,0,0,0,0,0,0,0,0,0,0,0,0,0,0,0,0,0,0,0,0,0,0,0,0,0,0,0,0,0,0,0,0,0,0,0,0,0,0,0,0,0,0,0,0,0,0,0,0,0,0,0,0,0,0,0,0,0,0,0
2.002,0,0,0,41.46913,8.234146,53.03123,0,0,0,0,0,0,0,0,-1.422015,-0.4106772,0.09400655,-3.214388,-39.23125,-32.59526,6.879522,-17.01747,0,0,0,0,0,0,0,0,0,0,0,0,0,344.2,0,0,0,0,0,0,0,0,0,0,0,0,0,0,0,0,0,0,0,0,0,0,0,0,0,0,0,0,0,0,0,0,0,0,0,0,0,0,0,0,0,0,0,0,0,0,0,0,0,0,0,0,0,0,0,0,0,0,0,0,0,0,0,0,0,0,0,0,0,0,0,0,0,0,0,0,0,0,0,0,0,0,0,0,0,0,0,0,0,0,0,0,0,0,0,0,0,0,0
3.001,0,0,0,23.2775,-11.67192,14.99574,82,82,-0.5889918,0,0,0,0,0,0.3104622,0.0706846,-0.422085,9.564381,-36.84307,-36.04601,12.86939,-17.53413,43.52941,1.01,999.5,25,18,0,19.60784,20.39216,0,12.99915,0.01,0,0,344.2,0,5.61655,428,59,4028,0.98,2.465864,2.226563,2.385344,-0.00390625,0,0,0,0,0,0,0,0,0,0,0,0,13.06,0,0,0,0,0,0,0,0,0,52,39,0,0,0,0,0,0,0,0,0,0,0,0,0,0,0,0,0,0,0,0,0,0,0,0,0,0,0,0,0,0,0,0,0,0,0,0,0,0,0,0,0,0,0,0,0,0,0,0,0,0,0,0,0,0,0,13.2,-0.1004789,0,35.75503,0,0,0,0,1,5E-06
4.001,0,0,0,5.045929,15.48022,6.125763,82,82,-0.5889918,0,0,0,0,0,0.5755804,-0.1273501,0.1051782,15.99335,-34.52085,-25.37413,6.358665,-29.87714,43.52941,1.01,999.5,25,18,0,19.60784,20.39216,0,12.99915,0.01,0,0,344.2,0,5.61655,428,59,4028,0.98,2.465864,2.226563,2.385344,-0.00390625,0,0,0,0,0,0,0,0,0,0,0,0,13.06,0,0,0,0,0,0,0,0,0,52,39,0,0,0,0,0,0,0,0,0,0,0,0,0,0,0,0,0,0,0,0,0,0,0,0,0,0,0,0,0,0,0,0,0,0,0,0,0,0,0,0,0,0,0,0,0,0,0,0,0,0,0,0,0,0,0,13.2,-0.1004789,0,35.75503,0,0,0,0,1,5E-06
5.003,3.728227,1.065121,6.040936,14.57875,26.38821,8.02655,82,82,0.2240641,3.210894,3.728227,0.002623517,477.4,0.7956668,-0.9590563,0.4819448,-0.4320549,8.72565,-39.43143,-30.31807,16.91132,-29.14377,21.96078,1.02,1001,25,18,0,14.90196,14.90196,0.6606291,12.92707,0.04,3.211036,476.9687,344.2,17.75201,5.618217,428,59,4028,0.98,2.745488,2.375,2.828936,-0.00390625,0,0,0,0,0,0,0,0,0,0,0,0,13.06,0,0,0,0,0,0,0,0,0,52,39,0,0,0,0,0,0,0,0,0,0,0,0,0,0,0,0,0,0,0,0,0,0,0,0,0,0,0,0,0,0,0,0,0,0,0,0,0,0,0,0,0,0,0,0,0,0,0,0,0,0,0,0,0,0,0,13.2,-0.03401422,0,39.80957,0.005500396,0.0002577128,17.73597,0.08472987,1,1.723812
6.001,4.349598,0.7121928,6.041865,8.083313,21.75467,15.65649,82,82,0.3325841,1.866357,4.349598,0.003552737,273.6114,0.5320222,-1.175786,0.1105395,-0.1248368,4.995511,-38.12128,-32.19758,20.36599,-33.37833,55.68628,1.04,1151.5,25,18,0,28.23529,28.23529,0.8742586,15.16223,0.06,2.147058,400.4022,344.1,10.17418,5.618608,428,59,4028,0.98,1.741184,1.585938,1.589904,-0.00390625,0,0,0,0,0,0,0,0,0,0,0,0,13.06,0,0,0,0,0,0,0,0,0,52,39,0,0,0,0,0,0,0,0,0,0,0,0,0,0,0,0,0,0,0,0,0,0,0,0,0,0,0,0,0,0,0,0,0,0,0,0,0,0,0,0,0,0,0,0,0,0,0,0,0,0,0,0,0,0,0,13.1,-0.004772956,0,25.24717,0.00887292,0.0003489918,14.88886,0.1148324,1,3.529972
7.001,4.349598,0.7121928,6.041865,-3.698623,13.93219,12.65826,82,82,0.3325841,1.866357,4.349598,0.003552737,273.6114,0.5320222,0.3509457,-0.1466112,0.03716591,4.169045,-38.01817,-30.69947,24.61244,-39.70001,55.68628,1.04,1151.5,25,18,0,28.23529,28.23529,0.8742586,15.16223,0.06,2.147058,400.4022,344.1,10.17418,5.618608,428,59,4028,0.98,1.741184,1.585938,1.589904,-0.00390625,0,0,0,0,0,0,0,0,0,0,0,0,13.06,0,0,0,0,0,0,0,0,0,52,39,0,0,0,0,0,0,0,0,0,0,0,0,0,0,0,0,0,0,0,0,0,0,0,0,0,0,0,0,0,0,0,0,0,0,0,0,0,0,0,0,0,0,0,0,0,0,0,0,0,0,0,0,0,0,0,13.1,-0.004772956,0,25.24717,0.00887292,0.0003489918,14.88886,0.1148324,1,3.529972
8.001,6.835083,1.714644,6.04417,-3.860489,4.410156,-3.246185,82,82,0.3885601,4.410998,6.835083,0.005857883,419.1948,1.280873,-0.6533583,0.1412607,-0.3636075,1.04175,-35.43045,-29.82165,22.49321,-40.66028,58.82353,1.03,1173,25,18,0,27.84314,27.84314,0.7215826,15.29681,0.05,5.16916,407.4836,344,15.58766,5.619978,428,59,4028,0.97,1.61284,1.421875,1.625528,-0.00390625,0,0,0,0,0,0,0,0,0,0,0,0,13.06,0,0,0,0,0,0,0,0,0,52,39,0,0,0,0,0,0,0,0,0,0,0,0,0,0,0,0,0,0,0,0,0,0,0,0,0,0,0,0,0,0,0,0,0,0,0,0,0,0,0,0,0,0,0,0,0,0,0,0,0,0,0,0,0,0,0,13.1,0.05692366,0,23.38618,0.01437575,0.0005754306,15.15218,0.144916,1,5.334984
9.001,6.835083,1.714644,6.04417,-16.34541,3.742005,14.41464,82,82,0.3885601,4.410998,6.835083,0.005857883,419.1948,1.280873,0.05463114,-0.2001846,-0.7146147,0.5434548,-36.17439,-28.21122,24.63193,-42.30644,58.82353,1.03,1173,25,18,0,27.84314,27.84314,0.7215826,15.29681,0.05,5.16916,407.4836,344,15.58766,5.619978,428,59,4028,0.97,1.61284,1.421875,1.625528,-0.00390625,0,0,0,0,0,0,0,0,0,0,0,0,13.06,0,0,0,0,0,0,0,0,0,52,39,0,0,0,0,0,0,0,0,0,0,0,0,0,0,0,0,0,0,0,0,0,0,0,0,0,0,0,0,0,0,0,0,0,0,0,0,0,0,0,0,0,0,0,0,0,0,0,0,0,0,0,0,0,0,0,13.1,0.05692366,0,23.38618,0.01437575,0.0005754306,15.15218,0.144916,1,5.334984
10.001,8.699197,1.663176,6.046398,2.215927,0.5815125,0.5207366,82,82,0.5398148,4.324681,8.699197,0.008085713,319.4808,1.242425,-0.1206382,0.1231526,0.09923409,3.39964,-37.45975,-27.20627,27.55031,-42.08301,52.94118,1.03,1160.5,23,18,0,22.7451,22.35294,0.6504492,15.13381,0.06,5.013999,378.1855,344.1,11.87982,5.621065,428,59,4028,0.98,1.982256,1.847656,2.20088,-0.00390625,0,0,0,0,0,0,0,0,0,0,0,0,13.06,0,0,0,0,0,0,0,0,0,52,39,0,0,0,0,0,0,0,0,0,0,0,0,0,0,0,0,0,0,0,0,0,0,0,0,0,0,0,0,0,0,0,0,0,0,0,0,0,0,0,0,0,0,0,0,0,0,0,0,0,0,0,0,0,0,0,13.1,0.08801464,0,28.74271,0.02138028,0.0007942743,14.06274,0.1798519,1,5.334984
11.001,8.699197,1.663176,6.046398,-1.631409,-1.96907,1.666199,82,82,0.5398148,4.324681,8.699197,0.008085713,319.4808,1.242425,-0.0141138,-0.3177443,0.1813625,2.534546,-38.28754,-26.39428,28.47715,-43.13582,52.94118,1.03,1160.5,23,18,0,22.7451,22.35294,0.6504492,15.13381,0.06,5.013999,378.1855,344.1,11.87982,5.621065,428,59,4028,0.98,1.982256,1.847656,2.20088,-0.00390625,0,0,0,0,0,0,0,0,0,0,0,0,13.06,0,0,0,0,0,0,0,0,0,52,39,0,0,0,0,0,0,0,0,0,0,0,0,0,0,0,0,0,0,0,0,0,0,0,0,0,0,0,0,0,0,0,0,0,0,0,0,0,0,0,0,0,0,0,0,0,0,0,0,0,0,0,0,0,0,0,13.1,0.08801464,0,28.74271,0.02138028,0.0007942743,14.06274,0.1798519,1,5.334984
12.003,9.941939,1.406985,6.048608,-27.30815,-16.87088,36.2875,82,82,0.3634763,3.714533,9.941939,0.0102951,236.4853,1.051046,0.8940497,-0.3826611,0.1720802,13.71262,-45.58273,-30.15974,39.2977,-38.13625,22.35294,1.01,1143,23,18,0,17.64706,17.64706,0.6138353,14.71487,0.03,4.241656,335.0961,344,8.793649,5.621806,428,59,4028,0.98,3.248616,2.644531,5.967264,-0.00390625,0,0,0,0,0,0,0,0,0,0,0,0,13.06,0,0,0,0,0,0,0,0,0,52,39,0,0,0,0,0,0,0,0,0,0,0,0,0,0,0,0,0,0,0,0,0,0,0,0,0,0,0,0,0,0,0,0,0,0,0,0,0,0,0,0,0,0,0,0,0,0,0,0,0,0,0,0,0,0,0,13.1,0.1463677,0,47.10493,0.03072284,0.001011307,12.46047,0.2089155,1,5.334984
13.001,9.941939,1.406985,6.048608,-1.670319,21.0972,-5.212143,82,82,0.3634763,3.714533,9.941939,0.0102951,236.4853,1.051046,-0.3710355,0.773378,-1.029223,12.40172,-38.3717,-16.20757,26.66368,-49.5468,22.35294,1.01,1143,23,18,0,17.64706,17.64706,0.6138353,14.71487,0.03,4.241656,335.0961,344,8.793649,5.621806,428,59,4028,0.98,3.248616,2.644531,5.967264,-0.00390625,0,0,0,0,0,0,0,0,0,0,0,0,13.06,0,0,0,0,0,0,0,0,0,52,39,0,0,0,0,0,0,0,0,0,0,0,0,0,0,0,0,0,0,0,0,0,0,0,0,0,0,0,0,0,0,0,0,0,0,0,0,0,0,0,0,0,0,0,0,0,0,0,0,0,0,0,0,0,0,0,13.1,0.1463677,0,47.10493,0.03072284,0.001011307,12.46047,0.2089155,1,5.334984
14.002,9.320568,0.4573217,6.049204,-7.221191,29.18904,24.04561,82,82,0.05213033,1.436764,9.941939,0.01089169,81.99081,0.3416284,0.2113218,0.08241153,-0.08700879,9.418649,-39.29787,-11.75673,30.66032,-49.09921,9.411765,1,960.5,23,18,0,21.17647,23.13725,0.47978,12.24295,0.02,1.378694,286.9606,344.1,3.048809,5.621344,428,59,4028,0.98,2.504904,2.246094,2.132072,-0.00390625,0,0,0,0,0,0,0,0,0,0,0,0,13.06,0,0,0,0,0,0,0,0,0,52,39,0,0,0,0,0,0,0,0,0,0,0,0,0,0,0,0,0,0,0,0,0,0,0,0,0,0,0,0,0,0,0,0,0,0,0,0,0,0,0,0,0,0,0,0,0,0,0,0,0,0,0,0,0,0,0,13.1,0.1303648,0,36.32111,0.03795534,0.00106991,10.67056,0.2386982,1,5.334984
15.002,9.320568,0.4573217,6.049204,-3.473618,35.34055,18.27855,82,82,0.05213033,1.436764,9.941939,0.01089169,81.99081,0.3416284,0.2380628,0.1120471,0.2860538,6.530037,-40.1255,-6.788052,29.35701,-42.77293,9.411765,1,960.5,23,18,0,21.17647,23.13725,0.47978,12.24295,0.02,1.378694,286.9606,344,3.048809,5.621344,428,59,4028,0.98,2.504904,2.246094,2.132072,-0.00390625,0,0,0,0,0,0,0,0,0,0,0,0,13.06,0,0,0,0,0,0,0,0,0,52,39,0,0,0,0,0,0,0,0,0,0,0,0,0,0,0,0,0,0,0,0,0,0,0,0,0,0,0,0,0,0,0,0,0,0,0,0,0,0,0,0,0,0,0,0,0,0,0,0,0,0,0,0,0,0,0,13.1,0.1303648,0,36.32111,0.03795534,0.00106991,10.67056,0.2386982,1,5.334984
16.002,9.320568,0.2415909,6.049528,2.24231,52.42459,11.78334,82,82,-0.08001427,0.6311894,9.941939,0.0112154,43.31358,0.1804732,0.3658524,-0.2661013,2.061894,5.367714,-47.38964,5.047264,38.5815,-40.38263,44.70588,1.04,1155,23,18,0,23.13725,23.13725,0.7163304,15.31102,0.06,0.7283275,246.6172,343.9,1.610605,5.620588,428,59,4028,0.98,1.94712,1.816406,1.903688,-0.00390625,0,0,0,0,0,0,0,0,0,0,0,0,13.06,0,0,0,0,0,0,0,0,0,52,39,0,0,0,0,0,0,0,0,0,0,0,0,0,0,0,0,0,0,0,0,0,0,0,0,0,0,0,0,0,0,0,0,0,0,0,0,0,0,0,0,0,0,0,0,0,0,0,0,0,0,0,0,0,0,0,13.1,0.08254169,0,28.23324,0.04547697,0.001101709,9.170402,0.2677578,1,5.334984
17.002,9.320568,0.2415909,6.049528,15.04773,-13.76791,-2.170959,82,82,-0.08001427,0.6311894,9.941939,0.0112154,43.31358,0.1804732,0.9966464,0.04374109,-0.6266642,15.06999,-41.95875,-3.423355,33.27574,-43.26181,44.70588,1.04,1155,23,18,0,23.13725,23.13725,0.7163304,15.31102,0.06,0.7283275,246.6172,343.8,1.610605,5.620588,428,59,4028,0.98,1.94712,1.816406,1.903688,-0.00390625,0,0,0,0,0,0,0,0,0,0,0,0,13.06,0,0,0,0,0,0,0,0,0,52,39,0,0,0,0,0,0,0,0,0,0,0,0,0,0,0,0,0,0,0,0,0,0,0,0,0,0,0,0,0,0,0,0,0,0,0,0,0,0,0,0,0,0,0,0,0,0,0,0,0,0,0,0,0,0,0,13.1,0.08254169,0,28.23324,0.04547697,0.001101709,9.170402,0.2677578,1,5.334984
18.002,10.56331,1.519172,6.051504,4.291794,4.583755,1.398056,82,82,0.1594324,3.636847,10.56331,0.01319096,240.3215,1.134851,-1.244346,-0.1214371,0.7729131,6.870639,-42.68629,-5.597408,29.55227,-36.47267,71.37255,1.03,1260.5,25,18,0,31.37255,30.98039,0.7886084,16.54889,0.05,4.579868,245.6214,343.9,8.936298,5.621268,428,59,4028,0.98,1.604544,1.394531,1.572336,-0.00390625,0,0,0,0,0,0,0,0,0,0,0,0,13.06,0,0,0,0,0,0,0,0,0,52,39,0,0,0,0,0,0,0,0,0,0,0,0,0,0,0,0,0,0,0,0,0,0,0,0,0,0,0,0,0,0,0,0,0,0,0,0,0,0,0,0,0,0,0,0,0,0,0,0,0,0,0,0,0,0,0,13.1,0.09899396,0,23.26589,0.05370446,0.001295772,9.133373,0.3028495,1,5.334984
19.003,13.04879,2.406543,6.055272,-13.7728,-1.314743,0.9768829,82,82,0.424906,4.923372,13.04879,0.01695954,308.1832,1.797736,-0.9112659,0.4905289,0.01683268,0.7617231,-38.04691,7.548271,24.53251,-39.6562,51.37255,1.04,1475,25,18,0,25.88235,25.88235,0.7218449,19.42187,0.06,7.255039,257.3063,343.9,11.45972,5.623054,428,59,4028,0.98,2.017392,1.914063,2.54736,-0.00390625,0,0,0,0,0,0,0,0,0,0,0,0,13.06,0,0,0,0,0,0,0,0,0,52,39,0,0,0,0,0,0,0,0,0,0,0,0,0,0,0,0,0,0,0,0,0,0,0,0,0,0,0,0,0,0,0,0,0,0,0,0,0,0,0,0,0,0,0,0,0,0,0,0,0,0,0,0,0,0,0,13.1,0.2641985,0,29.25218,0.06591186,0.001665966,9.567875,0.3322827,1,5.334984
20.002,13.04879,2.406543,6.055272,-2.176193,-3.789093,-6.657761,82,82,0.424906,4.923372,13.04879,0.01695954,308.1832,1.797736,-0.1982574,0.1183415,-0.122821,0.770414,-37.75777,2.716919,23.23721,-37.98987,51.37255,1.04,1475,25,18,0,25.88235,25.88235,0.7218449,19.42187,0.06,7.255039,257.3063,343.9,11.45972,5.623054,428,59,4028,0.98,2.017392,1.914063,2.54736,-0.00390625,0,0,0,0,0,0,0,0,0,0,0,0,13.06,0,0,0,0,0,0,0,0,0,52,39,0,0,0,0,0,0,0,0,0,0,0,0,0,0,0,0,0,0,0,0,0,0,0,0,0,0,0,0,0,0,0,0,0,0,0,0,0,0,0,0,0,0,0,0,0,0,0,0,0,0,0,0,0,0,0,13.1,0.2641985,0,29.25218,0.06591186,0.001665966,9.567875,0.3322827,1,5.334984
21.002,13.04879,2.406543,6.055272,4.279358,-1.141159,-15.67249,82,82,0.424906,4.923372,13.04879,0.01695954,308.1832,1.797736,0.5526195,-0.2396533,1.01015,-1.279252,-40.16254,7.719872,26.86199,-44.21805,51.37255,1.04,1475,25,18,0,25.88235,25.88235,0.7218449,19.42187,0.06,7.255039,257.3063,343.9,11.45972,5.623054,428,59,4028,0.98,2.017392,1.914063,2.54736,-0.00390625,0,0,0,0,0,0,0,0,0,0,0,0,13.06,0,0,0,0,0,0,0,0,0,52,39,0,0,0,0,0,0,0,0,0,0,0,0,0,0,0,0,0,0,0,0,0,0,0,0,0,0,0,0,0,0,0,0,0,0,0,0,0,0,0,0,0,0,0,0,0,0,0,0,0,0,0,0,0,0,0,13.1,0.2641985,0,29.25218,0.06591186,0.001665966,9.567875,0.3322827,1,5.334984
22.002,13.67017,1.882545,6.057774,-16.7715,6.287109,-16.35689,82,82,0.3435847,3.917766,13.67017,0.0194614,230.1216,1.406299,1.845798,-0.1150307,1.026524,1.090226,-38.40788,9.752968,21.24555,-54.50612,0,1.02,1450,25,18,0,14.90196,14.90196,0.6704193,18.72552,0.04,5.675335,253.4764,343.9,8.557018,5.623851,447,59,4028,0.98,15.9903,3.746094,15.9903,-0.00390625,0,0,0,0,0,0,0,0,0,0,0,0,14.64,0,0,0,0,0,0,0,0,0,59,37,0,0,0,0,0,0,0,0,0,0,0,0,0,0,0,0,0,0,0,0,0,0,0,0,0,0,0,0,0,0,0,0,0,0,0,0,0,0,0,0,0,0,0,0,0,0,0,0,0,0,0,0,0,0,0,14.7,0.2855093,0,231.8593,0.07677799,0.001911729,9.42546,0.3697574,1,5.334984
23.002,10.56331,0,6.057774,21.91927,-32.21162,-10.84151,82,82,-0.2311118,0,13.67017,0.0194614,0,0,0.9355179,-0.2554864,-0.02395209,-0.6972151,-42.93369,-4.877193,26.81638,-54.0719,0,1.02,1108.5,25,18,0,14.90196,14.90196,1.014797,14.31534,0.04,0,222.7138,343.9,0,5.622363,447,59,4028,0.98,15.9903,3.9375,13.64546,-0.00390625,0,0,0,0,0,0,0,0,0,0,0,0,14.64,0,0,0,0,0,0,0,0,0,59,37,0,0,0,0,0,0,0,0,0,0,0,0,0,0,0,0,0,0,0,0,0,0,0,0,0,0,0,0,0,0,0,0,0,0,0,0,0,0,0,0,0,0,0,0,0,0,0,0,0,0,0,0,0,0,0,14.7,0.1731633,0,231.8593,0.08738302,0.001911729,8.281561,0.3987894,1,5.334984
24.002,10.56331,0,6.057774,1.978485,-16.45625,-19.37549,82,82,-0.2311118,0,13.67017,0.0194614,0,0,-0.5133677,0.1458464,-0.273496,-0.3665072,-43.55451,-18.96969,30.06812,-46.2587,0,1.02,1108.5,25,18,0,14.90196,14.90196,1.014797,14.31534,0.04,0,222.7138,344,0,5.622363,447,59,4028,0.98,15.9903,3.9375,13.64546,-0.00390625,0,0,0,0,0,0,0,0,0,0,0,0,14.64,0,0,0,0,0,0,0,0,0,59,37,0,0,0,0,0,0,0,0,0,0,0,0,0,0,0,0,0,0,0,0,0,0,0,0,0,0,0,0,0,0,0,0,0,0,0,0,0,0,0,0,0,0,0,0,0,0,0,0,0,0,0,0,0,0,0,14.7,0.1731633,0,231.8593,0.08738302,0.001911729,8.281561,0.3987894,1,5.334984
25.002,10.56331,0,6.057774,2.832962,7.658432,-24.04942,82,82,-0.2311118,0,13.67017,0.0194614,0,0,0.1833418,0.2339567,1.095806,1.307486,-43.92733,-21.93578,25.18461,-49.23059,0,1.02,1108.5,25,18,0,14.90196,14.90196,1.014797,14.31534,0.04,0,222.7138,344,0,5.622363,447,59,4028,0.98,15.9903,3.9375,13.64546,-0.00390625,0,0,0,0,0,0,0,0,0,0,0,0,14.64,0,0,0,0,0,0,0,0,0,59,37,0,0,0,0,0,0,0,0,0,0,0,0,0,0,0,0,0,0,0,0,0,0,0,0,0,0,0,0,0,0,0,0,0,0,0,0,0,0,0,0,0,0,0,0,0,0,0,0,0,0,0,0,0,0,0,14.7,0.1731633,0,231.8593,0.08738302,0.001911729,8.281561,0.3987894,1,5.334984
26.002,8.699197,0,6.057774,-0.8047638,-17.54015,-5.337204,82,82,-0.549265,0,13.67017,0.0194614,0,0,0.9585826,-0.02167723,-0.5919144,3.999307,-40.24977,-20.76426,12.96975,-50.09235,19.60784,1.02,960,21,17,0,14.90196,14.90196,0.4645646,12.39759,0.04,0,206.7429,343.9,0,5.621416,447,59,4028,0.98,5.479752,3.125,4.98004,-0.00390625,0,0,0,0,0,0,0,0,0,0,0,0,14.64,0,0,0,0,0,0,0,0,0,59,37,0,0,0,0,0,0,0,0,0,0,0,0,0,0,0,0,0,0,0,0,0,0,0,0,0,0,0,0,0,0,0,0,0,0,0,0,0,0,0,0,0,0,0,0,0,0,0,0,0,0,0,0,0,0,0,13.1,0.1091395,0,79.45641,0.09413338,0.001911729,7.687685,0.4348665,1,5.334984
27.002,8.077826,0.5193838,6.058611,-13.32959,-15.13595,-5.425446,82,82,-0.3040879,1.499082,13.67017,0.02029838,107.4434,0.38799,-0.6447513,0.5312998,-0.3602997,-3.717936,-39.59101,-35.23743,10.19346,-28.28499,40.78431,1.01,1045.5,21,17,0,27.84314,31.37255,0.734591,13.55118,0.03,1.565793,199.0733,343.9,3.995257,5.621094,447,59,4028,0.98,1.555256,1.332031,1.4274,-0.00390625,0,0,0,0,0,0,0,0,0,0,0,0,14.64,0,0,0,0,0,0,0,0,0,59,37,0,0,0,0,0,0,0,0,0,0,0,0,0,0,0,0,0,0,0,0,0,0,0,0,0,0,0,0,0,0,0,0,0,0,0,0,0,0,0,0,0,0,0,0,0,0,0,0,0,0,0,0,0,0,0,13.1,0.03463367,0,22.55121,0.1019644,0.001993947,7.402493,0.4636165,1,5.334984
28.002,8.077826,0.5193838,6.058611,2.785141,-17.30304,-24.53519,82,82,-0.3040879,1.499082,13.67017,0.02029838,107.4434,0.38799,-1.653671,0.4332939,-1.603557,-7.592193,-38.13441,-35.07607,1.042633,-18.21048,40.78431,1.01,1045.5,21,17,0,27.84314,31.37255,0.734591,13.55118,0.03,1.565793,199.0733,343.8,3.995257,5.621094,447,59,4028,0.98,1.555256,1.332031,1.4274,-0.00390625,0,0,0,0,0,0,0,0,0,0,0,0,14.64,0,0,0,0,0,0,0,0,0,59,37,0,0,0,0,0,0,0,0,0,0,0,0,0,0,0,0,0,0,0,0,0,0,0,0,0,0,0,0,0,0,0,0,0,0,0,0,0,0,0,0,0,0,0,0,0,0,0,0,0,0,0,0,0,0,0,13.1,0.03463367,0,22.55121,0.1019644,0.001993947,7.402493,0.4636165,1,5.334984
29.002,10.56331,1.438435,6.060476,3.910568,-8.961166,3.700638,82,82,0.2563374,3.48924,13.67017,0.02216389,227.5495,1.074539,0.4452653,0.6146333,-3.128024,-1.954793,-29.79554,-27.08401,0.5995827,-19.33073,67.05882,1.07,1244,21,17,0,36.47059,37.2549,0.8981136,17.08189,0.09,4.336469,201.2103,343.8,8.461375,5.621676,447,59,4028,0.98,1.35664,0.9726563,1.343952,-0.00390625,0,0,0,0,0,0,0,0,0,0,0,0,14.64,0,0,0,0,0,0,0,0,0,59,37,0,0,0,0,0,0,0,0,0,0,0,0,0,0,0,0,0,0,0,0,0,0,0,0,0,0,0,0,0,0,0,0,0,0,0,0,0,0,0,0,0,0,0,0,0,0,0,0,0,0,0,0,0,0,0,13.1,0.05244398,0,19.67128,0.1101529,0.0021772,7.481957,0.4937263,1,5.334984
30.004,10.56331,1.438435,6.060476,3.886139,0.535614,-13.48987,82,82,0.2563374,3.48924,13.67017,0.02216389,227.5495,1.074539,-0.6259784,0.06505598,0.8056088,-4.642417,-36.59567,-30.28055,2.671841,-18.13885,67.05882,1.07,1244,21,17,0,36.47059,37.2549,0.8981136,17.08189,0.09,4.336469,201.2103,343.7,8.461375,5.621676,447,59,4028,0.98,1.35664,0.9726563,1.343952,-0.00390625,0,0,0,0,0,0,0,0,0,0,0,0,14.64,0,0,0,0,0,0,0,0,0,59,37,0,0,0,0,0,0,0,0,0,0,0,0,0,0,0,0,0,0,0,0,0,0,0,0,0,0,0,0,0,0,0,0,0,0,0,0,0,0,0,0,0,0,0,0,0,0,0,0,0,0,0,0,0,0,0,13.1,0.05244398,0,19.67128,0.1101529,0.0021772,7.481957,0.4937263,1,5.334984
31.002,13.67017,3.26406,6.064868,-7.795303,0.0907135,6.227493,82,82,0.7058322,6.091289,13.67017,0.02655568,398.9974,2.438318,0.7498949,-0.9746106,1.472098,-2.600002,-45.15916,-36.522,-3.321423,-8.498947,58.03922,1.17,1617,21,17,0,29.80392,29.41176,1.041694,24.27882,0.19,9.840207,219.1732,343.6,14.83663,5.624205,447,59,4028,0.98,1.98128,1.859375,2.220888,-0.00390625,0,0,0,0,0,0,0,0,0,0,0,0,14.64,0,0,0,0,0,0,0,0,0,59,37,0,0,0,0,0,0,0,0,0,0,0,0,0,0,0,0,0,0,0,0,0,0,0,0,0,0,0,0,0,0,0,0,0,0,0,0,0,0,0,0,0,0,0,0,0,0,0,0,0,0,0,0,0,0,0,13.1,0.1031048,0,28.72856,0.121163,0.002608613,8.149905,0.522802,1,5.334984
32.002,13.67017,3.26406,6.064868,1.330002,1.820648,-4.737503,82,82,0.7058322,6.091289,13.67017,0.02655568,398.9974,2.438318,0.5324508,-0.218552,0.02571566,1.626425,-43.95253,-32.80531,7.133881,-14.5365,58.03922,1.17,1617,21,17,0,29.80392,29.41176,1.041694,24.27882,0.19,9.840207,219.1732,343.7,14.83663,5.624205,447,59,4028,0.98,1.98128,1.859375,2.220888,-0.00390625,0,0,0,0,0,0,0,0,0,0,0,0,14.64,0,0,0,0,0,0,0,0,0,59,37,0,0,0,0,0,0,0,0,0,0,0,0,0,0,0,0,0,0,0,0,0,0,0,0,0,0,0,0,0,0,0,0,0,0,0,0,0,0,0,0,0,0,0,0,0,0,0,0,0,0,0,0,0,0,0,13.1,0.1031048,0,28.72856,0.121163,0.002608613,8.149905,0.522802,1,5.334984
33.002,14.91291,2.344286,6.067925,-3.476883,4.217514,2.037292,82,82,0.5445201,4.404799,14.91291,0.02961236,262.6842,1.751228,0.3355485,0.159971,0.03093016,1.677944,-44.6325,-33.24796,7.229582,-13.34315,0,1.05,1606,24,17,0,14.90196,14.90196,0.665024,21.64046,0.07,7.067351,222.9769,343.8,9.767852,5.625406,447,59,4028,0.98,15.9903,3.777344,15.9903,-0.00390625,0,0,0,0,0,0,0,0,0,0,0,0,14.64,0,0,0,0,0,0,0,0,0,59,37,0,0,0,0,0,0,0,0,0,0,0,0,0,0,0,0,0,0,0,0,0,0,0,0,0,0,0,0,0,0,0,0,0,0,0,0,0,0,0,0,0,0,0,0,0,0,0,0,0,0,0,0,0,0,0,14.7,0.1509219,0,231.8593,0.1328046,0.002908876,8.291342,0.5578073,1,5.334984
34.002,14.91291,2.344286,6.067925,9.30896,-0.5083771,-2.57077,82,82,0.5445201,4.404799,14.91291,0.02961236,262.6842,1.751228,0.7118093,-0.3627525,-0.1161084,-0.1396203,-45.93235,-33.28659,5.382942,-14.56165,0,1.05,1606,24,17,0,14.90196,14.90196,0.665024,21.64046,0.07,7.067351,222.9769,343.8,9.767852,5.625406,447,59,4028,0.98,15.9903,3.777344,15.9903,-0.00390625,0,0,0,0,0,0,0,0,0,0,0,0,14.64,0,0,0,0,0,0,0,0,0,59,37,0,0,0,0,0,0,0,0,0,0,0,0,0,0,0,0,0,0,0,0,0,0,0,0,0,0,0,0,0,0,0,0,0,0,0,0,0,0,0,0,0,0,0,0,0,0,0,0,0,0,0,0,0,0,0,14.7,0.1509219,0,231.8593,0.1328046,0.002908876,8.291342,0.5578073,1,5.334984
35.002,12.42742,0,6.067925,-15.342,-23.58743,-14.48599,82,82,-0.106324,0,14.91291,0.02961236,0,0,-1.518171,1.713908,-1.905889,-0.9043764,-32.81005,-30.38121,0.1035271,-13.60802,0,1.02,1295,24,17,0,14.90196,14.90196,0.8342364,16.78011,0.04,0,205.0232,343.8,0,5.623775,447,59,4028,0.98,15.9903,3.960938,15.9903,-0.00390625,0,0,0,0,0,0,0,0,0,0,0,0,14.64,0,0,0,0,0,0,0,0,0,59,37,0,0,0,0,0,0,0,0,0,0,0,0,0,0,0,0,0,0,0,0,0,0,0,0,0,0,0,0,0,0,0,0,0,0,0,0,0,0,0,0,0,0,0,0,0,0,0,0,0,0,0,0,0,0,0,14.7,0.09784289,0,231.8593,0.1444342,0.002908876,7.623741,0.5868878,1,5.334984
36.003,12.42742,0,6.067925,-5.656204,-3.397644,2.417389,82,82,-0.106324,0,14.91291,0.02961236,0,0,-0.03533833,0.05385466,-1.011371,4.164359,-29.63778,-24.46726,3.994402,-19.82854,0,1.02,1295,24,17,0,14.90196,14.90196,0.8342364,16.78011,0.04,0,205.0232,343.9,0,5.623775,447,59,4028,0.98,15.9903,3.960938,15.9903,-0.00390625,0,0,0,0,0,0,0,0,0,0,0,0,14.64,0,0,0,0,0,0,0,0,0,59,37,0,0,0,0,0,0,0,0,0,0,0,0,0,0,0,0,0,0,0,0,0,0,0,0,0,0,0,0,0,0,0,0,0,0,0,0,0,0,0,0,0,0,0,0,0,0,0,0,0,0,0,0,0,0,0,14.7,0.09784289,0,231.8593,0.1444342,0.002908876,7.623741,0.5868878,1,5.334984
37.004,9.941939,0,6.067925,-4.406952,-6.905106,1.209717,82,82,-0.5852115,0,14.91291,0.02961236,0,0,1.089156,-0.05891901,-0.9260027,7.280873,-36.85116,-23.80979,6.336535,-21.12845,0,1.05,1040.5,24,17,0,14.90196,14.90196,1.119075,13.87894,0.07,0,194.6201,343.8,0,5.622694,447,59,4028,0.98,8.219872,3.375,3.547272,-0.00390625,0,0,0,0,0,0,0,0,0,0,0,0,14.64,0,0,0,0,0,0,0,0,0,59,37,0,0,0,0,0,0,0,0,0,0,0,0,0,0,0,0,0,0,0,0,0,0,0,0,0,0,0,0,0,0,0,0,0,0,0,0,0,0,0,0,0,0,0,0,0,0,0,0,0,0,0,0,0,0,0,13.3,0.001993158,0,119.1881,0.1521546,0.002908876,7.236905,0.6166688,1,5.334984
38.003,6.835083,0,6.067925,-0.5591888,7.254745,0.8601379,82,82,-0.7056223,0,14.91291,0.02961236,0,0,0.7159101,-0.2221913,-0.6245607,9.203453,-42.76915,-27.74044,8.376255,-19.22086,27.45098,1.01,914,24,17,0,17.64706,27.84314,0.5333622,11.72715,0.03,0,187.8306,343.9,0,5.621923,447,59,4028,0.98,1.423984,1.09375,1.60308,-0.00390625,0,0,0,0,0,0,0,0,0,0,0,0,14.64,0,0,0,0,0,0,0,0,0,59,37,0,0,0,0,0,0,0,0,0,0,0,0,0,0,0,0,0,0,0,0,0,0,0,0,0,0,0,0,0,0,0,0,0,0,0,0,0,0,0,0,0,0,0,0,0,0,0,0,0,0,0,0,0,0,0,13.3,-0.1282628,0,20.64777,0.1576546,0.002908876,6.984437,0.6468229,1,5.334984
39.003,6.835083,0,6.067925,20.68903,17.05226,20.56184,82,82,-0.7056223,0,14.91291,0.02961236,0,0,-0.8153859,0.3370396,-0.4376741,4.682154,-39.69886,-36.55762,8.318464,-12.41963,27.45098,1.01,914,24,17,0,17.64706,27.84314,0.5333622,11.72715,0.03,0,187.8306,344,0,5.621923,447,59,4028,0.98,1.423984,1.09375,1.60308,-0.00390625,0,0,0,0,0,0,0,0,0,0,0,0,14.64,0,0,0,0,0,0,0,0,0,59,37,0,0,0,0,0,0,0,0,0,0,0,0,0,0,0,0,0,0,0,0,0,0,0,0,0,0,0,0,0,0,0,0,0,0,0,0,0,0,0,0,0,0,0,0,0,0,0,0,0,0,0,0,0,0,0,13.3,-0.1282628,0,20.64777,0.1576546,0.002908876,6.984437,0.6468229,1,5.334984
40.003,6.835083,0,6.067925,-13.51196,45.02563,12.98491,82,82,-0.7056223,0,14.91291,0.02961236,0,0,0.3316349,0.01079351,-0.4692713,4.67038,-38.10408,-30.46418,17.71311,-28.38724,27.45098,1.01,914,24,17,0,17.64706,27.84314,0.5333622,11.72715,0.03,0,187.8306,344.1,0,5.621923,447,59,4028,0.98,1.423984,1.09375,1.60308,-0.00390625,0,0,0,0,0,0,0,0,0,0,0,0,14.64,0,0,0,0,0,0,0,0,0,59,37,0,0,0,0,0,0,0,0,0,0,0,0,0,0,0,0,0,0,0,0,0,0,0,0,0,0,0,0,0,0,0,0,0,0,0,0,0,0,0,0,0,0,0,0,0,0,0,0,0,0,0,0,0,0,0,13.3,-0.1282628,0,20.64777,0.1576546,0.002908876,6.984437,0.6468229,1,5.334984
41.003,6.213712,1.249391,6.069613,14.82768,22.25529,6.827881,83,83,-0.4626907,2.965124,14.91291,0.03130018,335.9951,0.9333196,-0.7143723,-0.276139,0.9347784,-1.333997,-39.22976,-31.64508,17.69524,-31.39908,74.90196,1.18,1271.5,25,17,0,36.07843,35.29412,1.339243,19.06001,0.2,3.766555,192.4122,344.2,12.4939,5.622784,466,59,4028,0.98,1.6592,1.515625,1.513776,-0.00390625,0,0,0,0,0,0,0,0,0,0,0,0,13.38,0,0,0,0,0,0,0,0,0,58,35,0,0,0,0,0,0,0,0,0,0,0,0,0,0,0,0,0,0,0,0,0,0,0,0,0,0,0,0,0,0,0,0,0,0,0,0,0,0,0,0,0,0,0,0,0,0,0,0,0,0,0,0,0,0,0,13.4,-0.1592619,0,24.0584,0.1626725,0.003074674,7.154804,0.6996808,1,5.334984
42.003,6.213712,1.249391,6.069613,-25.94858,2.939758,-11.52034,83,83,-0.4626907,2.965124,14.91291,0.03130018,335.9951,0.9333196,0.6098796,0.7766215,-1.602723,-5.225862,-37.57896,-29.20131,11.57043,-33.39819,74.90196,1.18,1271.5,25,17,0,36.07843,35.29412,1.339243,19.06001,0.2,3.766555,192.4122,344.2,12.4939,5.622784,466,59,4028,0.98,1.6592,1.515625,1.513776,-0.00390625,0,0,0,0,0,0,0,0,0,0,0,0,13.38,0,0,0,0,0,0,0,0,0,58,35,0,0,0,0,0,0,0,0,0,0,0,0,0,0,0,0,0,0,0,0,0,0,0,0,0,0,0,0,0,0,0,0,0,0,0,0,0,0,0,0,0,0,0,0,0,0,0,0,0,0,0,0,0,0,0,13.4,-0.1592619,0,24.0584,0.1626725,0.003074674,7.154804,0.6996808,1,5.334984
43.003,13.04879,4.053593,6.079124,-0.7382049,-2.308548,2.970459,83,83,0.4040185,7.914657,14.91291,0.04081193,519.1053,3.028114,1.539051,-0.2356605,0.2204588,-2.300493,-42.78598,-31.01716,20.92921,-31.34233,76.86275,1.17,1545.5,25,17,0,41.96078,42.35294,1.148563,22.89395,0.19,12.22042,225.226,344.3,19.30281,5.628997,466,59,4028,0.98,1.289784,0.84375,1.382992,-0.00390625,0,0,0,0,0,0,0,0,0,0,0,0,13.38,0,0,0,0,0,0,0,0,0,58,35,0,0,0,0,0,0,0,0,0,0,0,0,0,0,0,0,0,0,0,0,0,0,0,0,0,0,0,0,0,0,0,0,0,0,0,0,0,0,0,0,0,0,0,0,0,0,0,0,0,0,0,0,0,0,0,13.4,-0.001236708,0,18.70187,0.1812044,0.004009031,8.374975,0.7287613,1,5.334984
44.003,13.04879,4.053593,6.079124,16.30925,13.09688,-6.381531,83,83,0.4040185,7.914657,14.91291,0.04081193,519.1053,3.028114,-0.3217816,-0.2692325,0.145093,0.06699545,-48.64486,-42.28717,15.34244,-20.71945,76.86275,1.17,1545.5,25,17,0,41.96078,42.35294,1.148563,22.89395,0.19,12.22042,225.226,344.3,19.30281,5.628997,466,59,4028,0.98,1.289784,0.84375,1.382992,-0.00390625,0,0,0,0,0,0,0,0,0,0,0,0,13.38,0,0,0,0,0,0,0,0,0,58,35,0,0,0,0,0,0,0,0,0,0,0,0,0,0,0,0,0,0,0,0,0,0,0,0,0,0,0,0,0,0,0,0,0,0,0,0,0,0,0,0,0,0,0,0,0,0,0,0,0,0,0,0,0,0,0,13.4,-0.001236708,0,18.70187,0.1812044,0.004009031,8.374975,0.7287613,1,5.334984
45.003,17.39839,7.772737,6.089227,4.150726,1.593369,-3.050293,83,83,1.038904,11.34186,17.39839,0.05091478,746.5356,5.806388,-0.4942149,0.2397894,-0.228638,-5.699725,-37.7691,-36.35228,11.04737,-29.48135,62.7451,1.61,2068,25,17,0,43.92157,44.70588,1.765685,42.15433,0.63,23.43257,261.4287,344.4,27.75975,5.636449,466,59,4028,0.98,1.88124,1.632813,1.692872,-0.00390625,0,0,0,0,0,0,0,0,0,0,0,0,13.38,0,0,0,0,0,0,0,0,0,58,35,0,0,0,0,0,0,0,0,0,0,0,0,0,0,0,0,0,0,0,0,0,0,0,0,0,0,0,0,0,0,0,0,0,0,0,0,0,0,0,0,0,0,0,0,0,0,0,0,0,0,0,0,0,0,0,13.1,0.1583719,0,27.27798,0.1947559,0.005001452,9.721168,0.7589397,1,5.334984
46.003,17.39839,7.772737,6.089227,54.6769,60.82994,11.27962,83,83,1.038904,11.34186,17.39839,0.05091478,746.5356,5.806388,-0.5067613,-0.3965676,-3.261936,-5.177301,-29.41967,-36.56641,5.978399,-33.02611,62.7451,1.61,2068,25,17,0,43.92157,44.70588,1.765685,42.15433,0.63,23.43257,261.4287,344.6,27.75975,5.636449,466,59,4028,0.98,1.88124,1.632813,1.692872,-0.00390625,0,0,0,0,0,0,0,0,0,0,0,0,13.38,0,0,0,0,0,0,0,0,0,58,35,0,0,0,0,0,0,0,0,0,0,0,0,0,0,0,0,0,0,0,0,0,0,0,0,0,0,0,0,0,0,0,0,0,0,0,0,0,0,0,0,0,0,0,0,0,0,0,0,0,0,0,0,0,0,0,13.1,0.1583719,0,27.27798,0.1947559,0.005001452,9.721168,0.7589397,1,5.334984
47.003,21.74799,4.809781,6.095701,4.588669,-9.635574,4.00177,83,83,1.098406,9.750738,21.74799,0.05738836,369.5659,3.593002,0.1247287,-1.39386,-0.5967963,-3.774588,-36.77982,-42.45202,15.62112,-30.18127,83.13725,1.47,1488.5,25,17,0,46.27451,47.05882,1.000275,27.70333,0.49,14.50011,270.3851,344.6,13.74222,5.639986,466,59,4028,0.97,1.331264,0.9414063,1.255624,-0.00390625,0,0,0,0,0,0,0,0,0,0,0,0,13.38,0,0,0,0,0,0,0,0,0,58,35,0,0,0,0,0,0,0,0,0,0,0,0,0,0,0,0,0,0,0,0,0,0,0,0,0,0,0,0,0,0,0,0,0,0,0,0,0,0,0,0,0,0,0,0,0,0,0,0,0,0,0,0,0,0,0,13.1,0.279262,0,19.30333,0.2122467,0.005637364,10.05421,0.78773,1,5.334984
48.004,21.74799,4.809781,6.095701,10.54565,-4.860306,-12.76091,83,83,1.098406,9.750738,21.74799,0.05738836,369.5659,3.593002,-0.4588904,-0.2474054,2.178605,3.933476,-53.65265,-39.7578,38.14104,-17.32565,83.13725,1.47,1488.5,25,17,0,46.27451,47.05882,1.000275,27.70333,0.49,14.50011,270.3851,344.7,13.74222,5.639986,466,59,4028,0.97,1.331264,0.9414063,1.255624,-0.00390625,0,0,0,0,0,0,0,0,0,0,0,0,13.38,0,0,0,0,0,0,0,0,0,58,35,0,0,0,0,0,0,0,0,0,0,0,0,0,0,0,0,0,0,0,0,0,0,0,0,0,0,0,0,0,0,0,0,0,0,0,0,0,0,0,0,0,0,0,0,0,0,0,0,0,0,0,0,0,0,0,13.1,0.279262,0,19.30333,0.2122467,0.005637364,10.05421,0.78773,1,5.334984
49.003,25.47622,6.954532,6.104731,-23.70086,-24.22444,-4.046371,83,83,1.019605,12.07478,25.47622,0.06641776,456.1616,5.195173,-1.120996,1.342323,-0.769991,1.621139,-48.66842,-36.17563,38.47722,-20.21867,76.07843,1.53,1738,26,17,0,42.7451,42.7451,1.516518,33.6672,0.56,20.96592,286.2191,344.8,16.96226,5.645558,466,59,4028,0.97,1.68116,1.550781,1.619184,-0.00390625,0,0,0,0,0,0,0,0,0,0,0,0,13.38,0,0,0,0,0,0,0,0,0,58,35,0,0,0,0,0,0,0,0,0,0,0,0,0,0,0,0,0,0,0,0,0,0,0,0,0,0,0,0,0,0,0,0,0,0,0,0,0,0,0,0,0,0,0,0,0,0,0,0,0,0,0,0,0,0,0,13.1,0.3110254,0,24.37682,0.2320521,0.006524338,10.64299,0.8227283,1,5.334984
50.004,25.47622,6.954532,6.104731,-1.822189,14.93367,-4.508972,83,83,1.019605,12.07478,25.47622,0.06641776,456.1616,5.195173,-0.04069084,0.3052452,1.522108,4.780251,-48.51054,-40.32832,36.85053,-19.14496,76.07843,1.53,1738,26,17,0,42.7451,42.7451,1.516518,33.6672,0.56,20.96592,286.2191,344.9,16.96226,5.645558,466,59,4028,0.97,1.68116,1.550781,1.619184,-0.00390625,0,0,0,0,0,0,0,0,0,0,0,0,13.38,0,0,0,0,0,0,0,0,0,58,35,0,0,0,0,0,0,0,0,0,0,0,0,0,0,0,0,0,0,0,0,0,0,0,0,0,0,0,0,0,0,0,0,0,0,0,0,0,0,0,0,0,0,0,0,0,0,0,0,0,0,0,0,0,0,0,13.1,0.3110254,0,24.37682,0.2320521,0.006524338,10.64299,0.8227283,1,5.334984
51.004,28.58307,4.965653,6.112523,18.66986,14.68233,-9.666428,83,83,0.8100982,8.521089,28.58307,0.07420998,290.3041,3.709442,-0.4574391,0.3819529,1.287843,3.00927,-47.70894,-36.46613,36.13084,-22.57166,60.39216,1.29,1758.5,26,17,0,40,40.39216,1.016819,28.62488,0.32,14.97002,286.6707,344.9,10.79489,5.648997,466,59,4028,0.97,1.354688,0.96875,1.317112,-0.00390625,0,0,0,0,0,0,0,0,0,0,0,0,13.38,0,0,0,0,0,0,0,0,0,58,35,0,0,0,0,0,0,0,0,0,0,0,0,0,0,0,0,0,0,0,0,0,0,0,0,0,0,0,0,0,0,0,0,0,0,0,0,0,0,0,0,0,0,0,0,0,0,0,0,0,0,0,0,0,0,0,13.1,0.3001153,0,19.64298,0.2588684,0.007289782,10.65978,0.8518936,1,5.334984
52.004,29.82582,3.201172,6.116773,-3.886536,-0.03152466,-10.6468,83,83,0.4908533,7.105437,29.82582,0.07845987,179.3504,2.391339,-0.2287533,0.4095048,-0.5699257,3.549556,-46.01513,-36.2776,36.58992,-23.78981,82.74509,1.27,1359.5,26,17,0,39.21569,39.21569,0.8161397,21.78685,0.3,9.650617,278.2038,345.1,6.669103,5.649673,466,59,4028,0.97,1.374696,1.011719,1.331264,-0.00390625,0,0,0,0,0,0,0,0,0,0,0,0,13.38,0,0,0,0,0,0,0,0,0,58,35,0,0,0,0,0,0,0,0,0,0,0,0,0,0,0,0,0,0,0,0,0,0,0,0,0,0,0,0,0,0,0,0,0,0,0,0,0,0,0,0,0,0,0,0,0,0,0,0,0,0,0,0,0,0,0,13.1,0.3002921,0,19.93309,0.282023,0.007707257,10.34494,0.8823445,1,5.334984
53.004,29.82582,3.201172,6.116773,7.785233,3.62735,-3.368469,83,83,0.4908533,7.105437,29.82582,0.07845987,179.3504,2.391339,0.3177467,-0.5890697,0.6314343,4.877611,-58.36873,-35.54027,40.96664,-10.60947,82.74509,1.27,1359.5,26,17,0,39.21569,39.21569,0.8161397,21.78685,0.3,9.650617,278.2038,345.2,6.669103,5.649673,466,59,4028,0.97,1.374696,1.011719,1.331264,-0.00390625,0,0,0,0,0,0,0,0,0,0,0,0,13.38,0,0,0,0,0,0,0,0,0,58,35,0,0,0,0,0,0,0,0,0,0,0,0,0,0,0,0,0,0,0,0,0,0,0,0,0,0,0,0,0,0,0,0,0,0,0,0,0,0,0,0,0,0,0,0,0,0,0,0,0,0,0,0,0,0,0,13.1,0.3002921,0,19.93309,0.282023,0.007707257,10.34494,0.8823445,1,5.334984
54.004,31.68993,4.08813,6.12234,10.69781,13.81702,-5.742096,83,83,0.3863956,11.00475,31.68993,0.08402723,215.5704,3.053914,-0.3350442,-0.7956016,-1.483806,2.994624,-50.75913,-37.1572,39.35833,-20.19255,55.68628,1.21,1121,26,17,0,38.43137,38.82353,0.9839696,17.11601,0.24,12.32454,272.7354,345.3,8.015936,5.651156,466,59,4028,0.97,1.332728,0.9179688,1.211216,-0.00390625,0,0,0,0,0,0,0,0,0,0,0,0,13.38,0,0,0,0,0,0,0,0,0,58,35,0,0,0,0,0,0,0,0,0,0,0,0,0,0,0,0,0,0,0,0,0,0,0,0,0,0,0,0,0,0,0,0,0,0,0,0,0,0,0,0,0,0,0,0,0,0,0,0,0,0,0,0,0,0,0,13.1,0.3986592,0,19.32456,0.3080907,0.008254149,10.1416,0.9118351,1,5.334984
55.006,31.68993,4.08813,6.12234,17.58272,16.60852,-3.371826,83,83,0.3863956,11.00475,31.68993,0.08402723,215.5704,3.053914,-0.4688736,-0.8746125,-1.02386,1.04158,-48.94337,-36.50468,36.13432,-22.98112,55.68628,1.21,1121,26,17,0,38.43137,38.82353,0.9839696,17.11601,0.24,12.32454,272.7354,345.3,8.015936,5.651156,466,59,4028,0.97,1.332728,0.9179688,1.211216,-0.00390625,0,0,0,0,0,0,0,0,0,0,0,0,13.38,0,0,0,0,0,0,0,0,0,58,35,0,0,0,0,0,0,0,0,0,0,0,0,0,0,0,0,0,0,0,0,0,0,0,0,0,0,0,0,0,0,0,0,0,0,0,0,0,0,0,0,0,0,0,0,0,0,0,0,0,0,0,0,0,0,0,13.1,0.3986592,0,19.32456,0.3080907,0.008254149,10.1416,0.9118351,1,5.334984
56.004,32.3113,2.276956,6.125296,21.10974,19.64256,-18.21603,83,83,0.3053115,6.043035,32.3113,0.08698358,117.7568,1.700931,-0.1014183,-0.1962079,-0.2441665,-1.935099,-45.96229,-36.67356,31.90753,-27.60234,82.74509,1.2,1137,22,17,0,31.37255,30.19608,0.9875957,17.21683,0.23,6.864369,260.7994,345.2,4.378757,5.650318,466,59,4028,0.97,1.68848,1.519531,1.515728,-0.00390625,0,0,0,0,0,0,0,0,0,0,0,0,13.38,0,0,0,0,0,0,0,0,0,58,35,0,0,0,0,0,0,0,0,0,0,0,0,0,0,0,0,0,0,0,0,0,0,0,0,0,0,0,0,0,0,0,0,0,0,0,0,0,0,0,0,0,0,0,0,0,0,0,0,0,0,0,0,0,0,0,13.1,0.4783967,0,24.48296,0.3335268,0.008544556,9.697765,0.9468994,1,5.334984
57.004,32.3113,2.276956,6.125296,15.97514,63.48695,-4.404922,83,83,0.3053115,6.043035,32.3113,0.08698358,117.7568,1.700931,-0.691294,0.5834841,-0.8294806,-6.505338,-38.78573,-20.00019,28.86164,-37.68375,82.74509,1.2,1137,22,17,0,31.37255,30.19608,0.9875957,17.21683,0.23,6.864369,260.7994,345.2,4.378757,5.650318,466,59,4028,0.97,1.68848,1.519531,1.515728,-0.00390625,0,0,0,0,0,0,0,0,0,0,0,0,13.38,0,0,0,0,0,0,0,0,0,58,35,0,0,0,0,0,0,0,0,0,0,0,0,0,0,0,0,0,0,0,0,0,0,0,0,0,0,0,0,0,0,0,0,0,0,0,0,0,0,0,0,0,0,0,0,0,0,0,0,0,0,0,0,0,0,0,13.1,0.4783967,0,24.48296,0.3335268,0.008544556,9.697765,0.9468994,1,5.334984
58.004,32.93267,2.804535,6.129781,2.507996,-0.04040527,0.4852448,83,83,0.1438725,7.505944,32.93267,0.09146847,142.3048,2.095043,-0.5742447,0.5757985,-2.223342,-4.063331,-36.10728,-27.46401,20.617,-36.14346,63.92157,0.97,1127.5,22,17,0,28.62745,28.62745,0.7963249,13.98769,0,8.454869,250.6096,345.2,5.291571,5.650045,466,59,4028,0.97,1.574288,1.347656,1.52744,-0.00390625,0,0,0,0,0,0,0,0,0,0,0,0,13.38,0,0,0,0,0,0,0,0,0,58,35,0,0,0,0,0,0,0,4,0,0,0,0,0,0,0,0,0,0,0,0,0,0,0,0,0,0,0,0,0,0,0,0,0,0,0,0,0,0,0,0,0,0,0,0,0,0,0,0,0,0,0,0,0,0,0,13.1,0.5685581,0,22.82718,0.3649839,0.008985115,9.318859,0.9762558,1,5.334984
59.004,32.93267,2.804535,6.129781,-203.9207,-77.41504,-50.68204,83,83,0.1438725,7.505944,32.93267,0.09146847,142.3048,2.095043,0.6644349,0.9914284,1.305173,1.495229,-48.19884,-37.93102,22.86394,-27.0016,63.92157,0.97,1127.5,22,17,0,28.62745,28.62745,0.7963249,13.98769,0,8.454869,250.6096,345.2,5.291571,5.650045,466,59,4028,0.97,1.574288,1.347656,1.52744,-0.00390625,0,0,0,0,0,0,0,0,0,0,0,0,13.38,0,0,0,0,0,0,0,0,0,58,35,0,0,0,0,0,0,0,4,0,0,0,0,0,0,0,0,0,0,0,0,0,0,0,0,0,0,0,0,0,0,0,0,0,0,0,0,0,0,0,0,0,0,0,0,0,0,0,0,0,0,0,0,0,0,0,13.1,0.5685581,0,22.82718,0.3649839,0.008985115,9.318859,0.9762558,1,5.334984
60.004,32.93267,2.804535,6.129781,-40.25478,77.47496,-17.00557,83,83,0.1438725,7.505944,32.93267,0.09146847,142.3048,2.095043,1.732135,-0.9670996,-1.564939,11.95451,-65.80476,-40.01217,21.34607,-8.358307,63.92157,0.97,1127.5,22,17,0,28.62745,28.62745,0.7963249,13.98769,0,8.454869,250.6096,345.2,5.291571,5.650045,466,59,4028,0.97,1.574288,1.347656,1.52744,-0.00390625,0,0,0,0,0,0,0,0,0,0,0,0,13.38,0,0,0,0,0,0,0,0,0,58,35,0,0,0,0,0,0,0,4,0,0,0,0,0,0,0,0,0,0,0,0,0,0,0,0,0,0,0,0,0,0,0,0,0,0,0,0,0,0,0,0,0,0,0,0,0,0,0,0,0,0,0,0,0,0,0,13.1,0.5685581,0,22.82718,0.3649839,0.008985115,9.318859,0.9762558,1,5.334984
61.004,33.55404,2.269438,6.133678,69.76024,-24.57008,-23.67203,83,83,0.1285645,6.194703,33.55404,0.09536584,113.021,1.695315,1.29533,0.4378442,0.7930679,-1.920803,-42.6235,-38.70102,10.35238,-23.02226,35.68628,0.6,1105.5,22,17,0,16.47059,20.39216,0.8411752,8.483358,-0.37,6.841704,239.7575,345.1,4.202659,5.649048,486,59,4028,0.97,2.413648,2.160156,2.097912,-0.00390625,0,0,0,0,0,0,0,0,0,0,0,0,13.1,0,0,0,0,0,0,0,0,0,66,38,0,0,0,0,0,0,0,0,0,0,0,0,0,0,0,0,0,0,0,0,0,0,0,0,0,0,0,0,0,0,0,0,0,0,0,0,0,0,0,0,0,0,0,0,0,0,0,0,0,0,0,0,0,0,0,13.1,0.5966477,0,34.99789,0.3977596,0.009367961,8.915325,1.025691,1,5.334984
62.004,33.55404,2.269438,6.133678,-9.991699,8.698151,-6.564514,83,83,0.1285645,6.194703,33.55404,0.09536584,113.021,1.695315,0.2572462,1.433477,-1.274739,-4.690758,-32.87537,-38.02568,0.08666611,-23.79105,35.68628,0.6,1105.5,22,17,0,16.47059,20.39216,0.8411752,8.483358,-0.37,6.841704,239.7575,345.1,4.202659,5.649048,486,59,4028,0.97,2.413648,2.160156,2.097912,-0.00390625,0,0,0,0,0,0,0,0,0,0,0,0,13.1,0,0,0,0,0,0,0,0,0,66,38,0,0,0,0,0,0,0,0,0,0,0,0,0,0,0,0,0,0,0,0,0,0,0,0,0,0,0,0,0,0,0,0,0,0,0,0,0,0,0,0,0,0,0,0,0,0,0,0,0,0,0,0,0,0,0,13.1,0.5966477,0,34.99789,0.3977596,0.009367961,8.915325,1.025691,1,5.334984
63.004,32.93267,1.01526,6.135503,-23.99861,-3.000153,2.999664,83,83,0.008530638,2.760041,33.55404,0.09719025,51.5153,0.7584197,2.265996,0.5159096,1.063612,2.401063,-36.93363,-47.62364,13.16355,-23.27785,50.58823,1.03,1110,22,17,0,24.31373,22.7451,0.6874636,14.62238,0.06,3.060719,223.4696,345,1.915584,5.645534,486,59,4028,0.97,1.933456,1.792969,2.329712,-0.00390625,0,0,0,0,0,0,0,0,0,0,0,0,13.1,0,0,0,0,0,0,0,0,0,66,38,0,0,0,0,0,0,0,0,0,0,0,0,0,0,0,0,0,0,0,0,0,0,0,0,0,0,0,0,0,0,0,0,0,0,0,0,0,0,0,0,0,0,0,0,0,0,0,0,0,0,0,0,0,0,0,13.1,0.4894606,0,28.03511,0.4349149,0.009547177,8.309666,1.057732,1,5.334984
64.004,32.93267,1.01526,6.135503,-3.48468,-12.09096,10.06152,83,83,0.008530638,2.760041,33.55404,0.09719025,51.5153,0.7584197,-0.8133783,0.4942198,-0.1115846,-2.44745,-34.78632,-44.10545,3.716404,-24.67068,50.58823,1.03,1110,22,17,0,24.31373,22.7451,0.6874636,14.62238,0.06,3.060719,223.4696,345.1,1.915584,5.645534,486,59,4028,0.97,1.933456,1.792969,2.329712,-0.00390625,0,0,0,0,0,0,0,0,0,0,0,0,13.1,0,0,0,0,0,0,0,0,0,66,38,0,0,0,0,0,0,0,0,0,0,0,0,0,0,0,0,0,0,0,0,0,0,0,0,0,0,0,0,0,0,0,0,0,0,0,0,0,0,0,0,0,0,0,0,0,0,0,0,0,0,0,0,0,0,0,13.1,0.4894606,0,28.03511,0.4349149,0.009547177,8.309666,1.057732,1,5.334984
65.004,32.93267,1.846401,6.138145,-29.28772,-24.04088,0.6407623,83,83,-0.0550327,4.990319,33.55404,0.09983236,93.68816,1.379298,-0.1086682,-0.1408167,-2.363067,-5.290525,-26.08256,-65.20887,0.3145142,-6.141434,64.31373,1.08,1116.5,21,17,0,32.94118,32.54902,0.8783866,15.42198,0.11,5.56637,215.5396,345.1,3.483773,5.644018,486,59,4028,0.97,1.594296,1.378906,1.536224,-0.00390625,0,0,0,0,0,0,0,0,0,0,0,0,13.1,0,0,0,0,0,0,0,0,0,66,38,0,0,0,0,0,0,0,0,0,0,0,0,0,0,0,0,0,0,0,0,0,0,0,0,0,0,0,0,0,0,0,0,0,0,0,0,0,0,0,0,0,0,0,0,0,0,0,0,0,0,0,0,0,0,0,13.1,0.3778604,0,23.11729,0.4631742,0.009806715,8.014788,1.092715,1,5.334984
66.004,32.93267,1.846401,6.138145,-7.058975,16.23734,-4.114868,83,83,-0.0550327,4.990319,33.55404,0.09983236,93.68816,1.379298,-3.144602,2.743321,7.188272,-8.72275,-18.19645,-82.77615,-10.40387,10.46793,64.31373,1.08,1116.5,21,17,0,32.94118,32.54902,0.8783866,15.42198,0.11,5.56637,215.5396,345.1,3.483773,5.644018,486,59,4028,0.97,1.594296,1.378906,1.536224,-0.00390625,0,0,0,0,0,0,0,0,0,0,0,0,13.1,0,0,0,0,0,0,0,0,0,66,38,0,0,0,0,0,0,0,0,0,0,0,0,0,0,0,0,0,0,0,0,0,0,0,0,0,0,0,0,0,0,0,0,0,0,0,0,0,0,0,0,0,0,0,0,0,0,0,0,0,0,0,0,0,0,0,13.1,0.3778604,0,23.11729,0.4631742,0.009806715,8.014788,1.092715,1,5.334984
67.004,33.55404,2.14218,6.141511,1.85672,-2.708969,-2.749786,83,83,0.06621704,5.771636,33.55404,0.1031984,106.6834,1.600251,0.1348269,0.0975431,-0.4222549,-3.520174,-16.46901,-81.3063,-6.337124,16.62701,53.72549,1.11,1120,21,17,0,22.7451,22.35294,0.7942401,15.95412,0.14,6.458059,208.6349,345.2,3.966997,5.642723,486,59,4028,0.97,1.863672,1.773438,2.245288,-0.00390625,0,0,0,0,0,0,0,0,0,0,0,0,13.1,0,0,0,0,0,0,0,0,0,66,38,0,0,0,0,0,0,0,4,0,0,0,0,0,0,0,0,0,0,0,0,0,0,0,0,0,0,0,0,0,0,0,0,0,0,0,0,0,0,0,0,0,0,0,0,0,0,0,0,0,0,0,0,0,0,0,13.1,0.2830228,0,27.02324,0.4946364,0.01013737,7.758041,1.121833,1,5.334984
68.005,33.55404,2.14218,6.141511,-0.7882385,-7.507339,-1.713654,83,83,0.06621704,5.771636,33.55404,0.1031984,106.6834,1.600251,0.09189258,0.0001333465,-0.2022388,-3.216343,-17.19104,-80.5052,-7.765663,20.50722,53.72549,1.11,1120,21,17,0,22.7451,22.35294,0.7942401,15.95412,0.14,6.458059,208.6349,345.2,3.966997,5.642723,486,59,4028,0.97,1.863672,1.773438,2.245288,-0.00390625,0,0,0,0,0,0,0,0,0,0,0,0,13.1,0,0,0,0,0,0,0,0,0,66,38,0,0,0,0,0,0,0,4,0,0,0,0,0,0,0,0,0,0,0,0,0,0,0,0,0,0,0,0,0,0,0,0,0,0,0,0,0,0,0,0,0,0,0,0,0,0,0,0,0,0,0,0,0,0,0,13.1,0.2830228,0,27.02324,0.4946364,0.01013737,7.758041,1.121833,1,5.334984
69.006,32.93267,3.022343,6.145453,2.532852,-13.23802,-8.310043,83,83,-0.01349771,8.081709,33.55404,0.1071406,153.3566,2.25775,-0.1549772,0.07981554,0.1615323,-3.196081,-18.0677,-80.27007,-6.575191,19.64321,32.15686,1.05,1128.5,21,17,0,28.23529,30.58824,1.337222,15.20627,0.08,9.111499,205.9258,345.3,5.70253,5.642768,486,59,4028,0.97,1.811944,1.660156,1.607472,-0.00390625,0,0,0,0,0,0,0,0,0,0,0,0,13.1,0,0,0,0,0,0,0,0,0,66,38,0,0,0,0,0,0,0,0,0,0,0,0,0,0,0,0,0,0,0,0,0,0,0,0,0,0,0,0,0,0,0,0,0,0,0,0,0,0,0,0,0,0,0,0,0,0,0,0,0,0,0,0,0,0,0,13.1,0.1712398,0,26.27319,0.5202873,0.01052461,7.657301,1.15234,1,5.334984
70.005,33.55404,1.139798,6.147011,6.006348,-37.54765,-18.69937,83,83,-0.00364876,3.021035,33.55404,0.1086981,56.76344,0.8514515,0.7681386,0.2144938,-0.1094417,-4.103415,-17.31971,-80.54523,-7.021141,16.33666,66.66666,1.11,1138.5,21,17,0,30.98039,30.98039,0.8362013,16.21764,0.14,3.436164,198.4716,345.3,2.110735,5.640384,486,59,4028,0.97,1.616744,1.417969,1.567456,-0.00390625,0,0,0,0,0,0,0,0,0,0,0,0,13.1,0,0,0,0,0,0,0,0,0,66,38,0,0,0,0,0,0,0,0,0,0,0,0,0,0,0,0,0,0,0,0,0,0,0,0,0,0,0,0,0,0,0,0,0,0,0,0,0,0,0,0,0,0,0,0,0,0,0,0,0,0,0,0,0,0,0,13.1,0.1202734,0,23.44279,0.5476758,0.01067761,7.380119,1.181435,1,5.334984
71.005,33.55404,1.139798,6.147011,7.514648,0.05223083,-6.405655,83,83,-0.00364876,3.021035,33.55404,0.1086981,56.76344,0.8514515,-0.5493835,-0.1557478,0.5809519,-7.480587,-21.77409,-73.46857,-19.45511,24.32852,66.66666,1.11,1138.5,21,17,0,30.98039,30.98039,0.8362013,16.21764,0.14,3.436164,198.4716,345.4,2.110735,5.640384,486,59,4028,0.97,1.616744,1.417969,1.567456,-0.00390625,0,0,0,0,0,0,0,0,0,0,0,0,13.1,0,0,0,0,0,0,0,0,0,66,38,0,0,0,0,0,0,0,0,0,0,0,0,0,0,0,0,0,0,0,0,0,0,0,0,0,0,0,0,0,0,0,0,0,0,0,0,0,0,0,0,0,0,0,0,0,0,0,0,0,0,0,0,0,0,0,13.1,0.1202734,0,23.44279,0.5476758,0.01067761,7.380119,1.181435,1,5.334984
72.005,33.55404,2.513244,6.150276,4.674149,3.140808,1.203705,83,83,0.07606598,6.623539,33.55404,0.1119634,125.1629,1.877443,-0.5439304,-0.3534279,-1.077206,-7.430782,-21.39903,-74.54119,-17.24414,20.87994,62.7451,1.13,1145,23,17,0,27.05882,27.05882,0.8815584,16.60411,0.16,7.57671,195.1131,345.4,4.654151,5.639739,486,59,4028,0.97,1.770464,1.628906,1.88368,-0.00390625,0,0,0,0,0,0,0,0,0,0,0,0,13.1,0,0,0,0,0,0,0,0,0,66,38,0,0,0,0,0,0,0,0,0,0,0,0,0,0,0,0,0,0,0,0,0,0,0,0,0,0,0,0,0,0,0,0,0,0,0,0,0,0,0,0,0,0,0,0,0,0,0,0,0,0,0,0,0,0,0,13.1,0.08828232,0,25.67173,0.5738385,0.01099837,7.255237,1.216447,1,5.334984
73.005,33.55404,2.513244,6.150276,-9.363494,-14.96004,15.26163,83,83,0.07606598,6.623539,33.55404,0.1119634,125.1629,1.877443,-0.2915686,0.01276663,0.1057963,-7.705245,-21.80295,-75.11063,-14.82235,19.46452,62.7451,1.13,1145,23,17,0,27.05882,27.05882,0.8815584,16.60411,0.16,7.57671,195.1131,345.4,4.654151,5.639739,486,59,4028,0.97,1.770464,1.628906,1.88368,-0.00390625,0,0,0,0,0,0,0,0,0,0,0,0,13.1,0,0,0,0,0,0,0,0,0,66,38,0,0,0,0,0,0,0,0,0,0,0,0,0,0,0,0,0,0,0,0,0,0,0,0,0,0,0,0,0,0,0,0,0,0,0,0,0,0,0,0,0,0,0,0,0,0,0,0,0,0,0,0,0,0,0,13.1,0.08828232,0,25.67173,0.5738385,0.01099837,7.255237,1.216447,1,5.334984
74.005,33.55404,1.880571,6.153226,-0.6429749,9.255554,-10.10074,83,83,-4.302114E-16,4.932467,33.55404,0.1149134,93.65492,1.404824,-1.53354,-0.77324,-0.1967418,-10.07567,-21.18884,-73.83488,-16.93773,16.30995,33.33333,0.82,1150.5,23,17,0,29.41176,30.19608,0.7016259,12.02512,-0.15,5.669383,189.8247,345.5,3.482537,5.638061,486,59,4028,0.97,1.052128,0.08984375,0.909632,-0.00390625,0,0,0,0,0,0,0,0,0,0,0,0,13.1,0,0,0,0,0,0,0,0,0,66,38,0,0,0,0,0,0,0,4,0,0,0,0,0,0,0,0,0,0,0,0,0,0,0,0,0,0,0,0,0,0,0,0,0,0,0,0,0,0,0,0,0,0,0,0,0,0,0,0,0,0,0,0,0,0,0,13.1,0.04299428,0,15.25586,0.6053662,0.01128816,7.058586,1.245445,1,5.334984
75.005,33.55404,1.880571,6.153226,2.428635,-1.013733,-13.73526,83,83,-4.302114E-16,4.932467,33.55404,0.1149134,93.65492,1.404824,0.1218912,0.03304974,-0.08083876,-12.20531,-21.53438,-71.18034,-20.72505,17.48238,33.33333,0.82,1150.5,23,17,0,29.41176,30.19608,0.7016259,12.02512,-0.15,5.669383,189.8247,345.5,3.482537,5.638061,486,59,4028,0.97,1.052128,0.08984375,0.909632,-0.00390625,0,0,0,0,0,0,0,0,0,0,0,0,13.1,0,0,0,0,0,0,0,0,0,66,38,0,0,0,0,0,0,0,4,0,0,0,0,0,0,0,0,0,0,0,0,0,0,0,0,0,0,0,0,0,0,0,0,0,0,0,0,0,0,0,0,0,0,0,0,0,0,0,0,0,0,0,0,0,0,0,13.1,0.04299428,0,15.25586,0.6053662,0.01128816,7.058586,1.245445,1,5.334984
76.007,33.55404,1.327843,6.154947,-24.76912,15.62578,-2.474945,83,83,-4.302114E-16,3.487288,33.55404,0.1166341,66.12836,0.9919254,-0.01668165,-0.791696,-2.364417,-7.465321,-22.34216,-75.01352,-13.77061,19.61748,41.17647,0.84,1149,23,17,0,30.58824,30.98039,0.9280741,12.30235,-0.13,4.003067,184.7132,345.5,2.458967,5.636017,486,59,4028,0.97,0.942328,-0.3632813,0.923784,-0.00390625,0,0,0,0,0,0,0,0,0,0,0,0,13.1,0,0,0,0,0,0,0,0,0,66,38,0,0,0,0,0,0,0,4,0,0,0,0,0,0,0,0,0,0,0,0,0,0,0,0,0,0,0,0,0,0,0,0,0,0,0,0,0,0,0,0,0,0,0,0,0,0,0,0,0,0,0,0,0,0,0,13.1,0.02722002,0,13.66376,0.6314334,0.01145718,6.868518,1.275195,1,5.334984
77.005,33.55404,1.327843,6.154947,1.825333,19.14996,-3.151901,83,83,-4.302114E-16,3.487288,33.55404,0.1166341,66.12836,0.9919254,-0.6752653,-0.6058267,-0.4820338,-8.948962,-22.48325,-75.33641,-15.34813,17.91436,41.17647,0.84,1149,23,17,0,30.58824,30.98039,0.9280741,12.30235,-0.13,4.003067,184.7132,345.7,2.458967,5.636017,486,59,4028,0.97,0.942328,-0.3632813,0.923784,-0.00390625,0,0,0,0,0,0,0,0,0,0,0,0,13.1,0,0,0,0,0,0,0,0,0,66,38,0,0,0,0,0,0,0,4,0,0,0,0,0,0,0,0,0,0,0,0,0,0,0,0,0,0,0,0,0,0,0,0,0,0,0,0,0,0,0,0,0,0,0,0,0,0,0,0,0,0,0,0,0,0,0,13.1,0.02722002,0,13.66376,0.6314334,0.01145718,6.868518,1.275195,1,5.334984
78.005,34.17542,2.242877,6.157975,10.83832,-8.291626,-2.624084,83,83,0.07729352,5.837081,34.17542,0.1196624,109.6674,1.675474,1.293327,-0.09379084,0.05051347,-6.325384,-22.96663,-76.16594,-12.27914,20.57414,41.56863,1.06,1159.5,23,17,0,33.33333,33.72549,1.270684,15.66626,0.09,6.761632,181.6133,345.8,4.077955,5.634981,486,59,4028,0.97,0.93696,-0.453125,0.947208,-0.00390625,0,0,0,0,0,0,0,0,0,0,0,0,13.1,0,0,0,0,0,0,0,0,0,66,38,0,0,0,0,0,0,0,4,0,0,0,0,0,0,0,0,0,0,0,0,0,0,0,0,0,0,0,0,0,0,0,0,0,0,0,0,0,0,0,0,0,0,0,0,0,0,0,0,0,0,0,0,0,0,0,13.1,0.02967848,0,13.58592,0.658886,0.01175466,6.753247,1.304265,1,5.334984
79.005,34.17542,2.242877,6.157975,-8.140945,-5.778122,0.7087708,83,83,0.07729352,5.837081,34.17542,0.1196624,109.6674,1.675474,0.5668024,-0.008018353,-1.075948,-7.555027,-22.7755,-75.10696,-14.70115,19.57781,41.56863,1.06,1159.5,23,17,0,33.33333,33.72549,1.270684,15.66626,0.09,6.761632,181.6133,345.9,4.077955,5.634981,486,59,4028,0.97,0.93696,-0.453125,0.947208,-0.00390625,0,0,0,0,0,0,0,0,0,0,0,0,13.1,0,0,0,0,0,0,0,0,0,66,38,0,0,0,0,0,0,0,4,0,0,0,0,0,0,0,0,0,0,0,0,0,0,0,0,0,0,0,0,0,0,0,0,0,0,0,0,0,0,0,0,0,0,0,0,0,0,0,0,0,0,0,0,0,0,0,13.1,0.02967848,0,13.58592,0.658886,0.01175466,6.753247,1.304265,1,5.334984
80.005,34.17542,2.242877,6.157975,3.500092,18.3208,-9.781586,83,83,0.07729352,5.837081,34.17542,0.1196624,109.6674,1.675474,0.1148255,0.006584791,0.6259366,-7.249588,-22.81238,-75.72556,-14.90541,19.19649,41.56863,1.06,1159.5,23,17,0,33.33333,33.72549,1.270684,15.66626,0.09,6.761632,181.6133,346,4.077955,5.634981,486,59,4028,0.97,0.93696,-0.453125,0.947208,-0.00390625,0,0,0,0,0,0,0,0,0,0,0,0,13.1,0,0,0,0,0,0,0,0,0,66,38,0,0,0,0,0,0,0,4,0,0,0,0,0,0,0,0,0,0,0,0,0,0,0,0,0,0,0,0,0,0,0,0,0,0,0,0,0,0,0,0,0,0,0,0,0,0,0,0,0,0,0,0,0,0,0,13.1,0.02967848,0,13.58592,0.658886,0.01175466,6.753247,1.304265,1,5.334984
81.005,34.79679,2.321422,6.16099,-8.776198,-8.63031,11.21483,85,87,0.1567246,5.906502,34.79679,0.122677,111.4809,1.734148,-0.2594368,0.08546279,-1.029786,-7.368782,-22.91802,-76.62559,-15.8847,19.45802,45.4902,1.21,1186,25,17,0,36.86274,36.86274,1.290978,18.2919,0.24,6.998422,178.8071,346,4.145393,5.633968,506,59,4029,0.97,1.407392,1.066406,1.299544,-0.00390625,0,0,0,0,0,0,0,0,0,0,0,0,13.06,0,0,0,0,0,0,0,0,0,64,35,0,0,0,0,0,0,0,0,0,0,0,0,0,0,0,0,0,0,0,0,0,0,0,0,0,0,0,0,0,0,0,0,0,0,0,0,0,0,0,0,0,0,0,0,0,0,0,0,0,0,0,0,0,0,0,13.1,0.03285204,0,20.40718,0.6860856,0.01205078,6.6489,1.356806,1,5.334984
82.005,34.79679,2.321422,6.16099,21.35258,-9.405502,-1.734238,85,87,0.1567246,5.906502,34.79679,0.122677,111.4809,1.734148,1.454065,-1.156875,-0.2910634,-5.305714,-22.55428,-77.24972,-13.75259,24.43173,45.4902,1.21,1186,25,17,0,36.86274,36.86274,1.290978,18.2919,0.24,6.998422,178.8071,346.1,4.145393,5.633968,506,59,4029,0.97,1.407392,1.066406,1.299544,-0.00390625,0,0,0,0,0,0,0,0,0,0,0,0,13.06,0,0,0,0,0,0,0,0,0,64,35,0,0,0,0,0,0,0,0,0,0,0,0,0,0,0,0,0,0,0,0,0,0,0,0,0,0,0,0,0,0,0,0,0,0,0,0,0,0,0,0,0,0,0,0,0,0,0,0,0,0,0,0,0,0,0,13.1,0.03285204,0,20.40718,0.6860856,0.01205078,6.6489,1.356806,1,5.334984
83.007,36.03953,2.026481,6.165793,11.27299,-30.82993,7.660141,85,87,0.1679098,4.917651,36.03953,0.1274802,93.96132,1.513821,1.356549,-0.1762403,-0.6050816,-4.066057,-23.28632,-76.47527,-15.0776,25.98076,80.78432,1.21,1243.5,25,17,0,36.47059,36.86274,1.013594,19.05009,0.24,6.109259,173.0501,346.2,3.49393,5.631356,506,59,4029,0.97,1.338584,0.9375,1.30784,-0.00390625,0,0,0,0,0,0,0,0,0,0,0,0,13.06,0,0,0,0,0,0,0,0,0,64,35,0,0,0,0,0,0,0,0,0,0,0,0,0,0,0,0,0,0,0,0,0,0,0,0,0,0,0,0,0,0,0,0,0,0,0,0,0,0,0,0,0,0,0,0,0,0,0,0,0,0,0,0,0,0,0,13.1,0.06155431,0,19.40947,0.7366663,0.01252261,6.434827,1.38632,1,5.334984
84.006,36.6609,3.59875,6.17049,-0.3864288,-39.4108,3.944626,85,87,0.1668268,8.649599,36.6609,0.1321775,164.0342,2.688338,0.5390977,0.7665164,-0.3038575,-6.534206,-23.01364,-74.60828,-18.4994,22.53025,80.78432,1.21,1255.5,25,17,0,35.68628,36.07843,0.9667253,19.23392,0.24,10.8492,172.6188,346.3,6.099572,5.631627,506,59,4029,0.97,1.375672,1.007813,1.301984,-0.00390625,0,0,0,0,0,0,0,0,0,0,0,0,13.06,0,0,0,0,0,0,0,0,0,64,35,0,0,0,0,0,0,0,0,0,0,0,0,0,0,0,0,0,0,0,0,0,0,0,0,0,0,0,0,0,0,0,0,0,0,0,0,0,0,0,0,0,0,0,0,0,0,0,0,0,0,0,0,0,0,0,13.1,0.07722395,0,19.94724,0.7657191,0.01298404,6.418789,1.416463,1,5.334984
85.006,36.6609,3.59875,6.17049,-0.2668304,-16.06779,2.418793,85,87,0.1668268,8.649599,36.6609,0.1321775,164.0342,2.688338,-0.6632037,0.009911697,-0.7890992,-5.87371,-22.41984,-75.96387,-16.94359,22.84161,80.78432,1.21,1255.5,25,17,0,35.68628,36.07843,0.9667253,19.23392,0.24,10.8492,172.6188,346.3,6.099572,5.631627,506,59,4029,0.97,1.375672,1.007813,1.301984,-0.00390625,0,0,0,0,0,0,0,0,0,0,0,0,13.06,0,0,0,0,0,0,0,0,0,64,35,0,0,0,0,0,0,0,0,0,0,0,0,0,0,0,0,0,0,0,0,0,0,0,0,0,0,0,0,0,0,0,0,0,0,0,0,0,0,0,0,0,0,0,0,0,0,0,0,0,0,0,0,0,0,0,13.1,0.07722395,0,19.94724,0.7657191,0.01298404,6.418789,1.416463,1,5.334984
86.006,37.28227,3.348114,6.174985,8.553497,9.596283,-12.26419,85,87,0.155257,7.989921,37.28227,0.1366721,150.0665,2.501108,0.6360412,-0.7951933,-0.4639198,-3.907529,-22.98875,-77.77932,-13.48251,24.59003,72.54902,1.16,1264.5,25,17,0,27.84314,27.05882,0.8908011,18.57131,0.19,10.09361,171.738,346.4,5.580186,5.631569,506,59,4029,0.97,1.617232,1.441406,1.816824,-0.00390625,0,0,0,0,0,0,0,0,0,0,0,0,13.06,0,0,0,0,0,0,0,0,0,64,35,0,0,0,0,0,0,0,0,0,0,0,0,0,0,0,0,0,0,0,0,0,0,0,0,0,0,0,0,0,0,0,0,0,0,0,0,0,0,0,0,0,0,0,0,0,0,0,0,0,0,0,0,0,0,0,13.1,0.0793623,0,23.44986,0.7958173,0.01342555,6.386037,1.445185,1,5.334984
87.006,37.28227,3.348114,6.174985,-15.89743,-1.486115,4.244949,85,87,0.155257,7.989921,37.28227,0.1366721,150.0665,2.501108,-2.381937,0.8741859,-0.008891184,-6.651641,-23.37911,-75.58627,-15.3676,22.71219,72.54902,1.16,1264.5,25,17,0,27.84314,27.05882,0.8908011,18.57131,0.19,10.09361,171.738,346.4,5.580186,5.631569,506,59,4029,0.97,1.617232,1.441406,1.816824,-0.00390625,0,0,0,0,0,0,0,0,0,0,0,0,13.06,0,0,0,0,0,0,0,0,0,64,35,0,0,0,0,0,0,0,0,0,0,0,0,0,0,0,0,0,0,0,0,0,0,0,0,0,0,0,0,0,0,0,0,0,0,0,0,0,0,0,0,0,0,0,0,0,0,0,0,0,0,0,0,0,0,0,13.1,0.0793623,0,23.44986,0.7958173,0.01342555,6.386037,1.445185,1,5.334984
88.006,37.28227,2.227497,6.177874,-22.74614,9.709839,-18.40508,85,87,0.0769088,5.388123,37.28227,0.1395616,99.83904,1.663984,-1.219107,0.07387081,-0.5018203,-1.719954,-22.62888,-77.95581,-8.635941,24.80305,51.37255,1.04,1247.5,21,17,0,25.09804,25.09804,0.6552256,16.4263,0.07,6.715264,169.2167,346.5,3.712492,5.630209,506,59,4029,0.97,1.813408,1.667969,2.241384,-0.00390625,0,0,0,0,0,0,0,0,0,0,0,0,13.06,0,0,0,0,0,0,0,0,0,64,35,0,0,0,0,0,0,0,0,0,0,0,0,0,0,0,0,0,0,0,0,0,0,0,0,0,0,0,0,0,0,0,0,0,0,0,0,0,0,0,0,0,0,0,0,0,0,0,0,0,0,0,0,0,0,0,13.1,0.09530525,0,26.29442,0.8247507,0.01370939,6.292283,1.480236,1,5.334984
89.006,37.28227,2.227497,6.177874,-4.980637,-15.51233,9.011688,85,87,0.0769088,5.388123,37.28227,0.1395616,99.83904,1.663984,-0.08729026,0.6605918,1.124256,-4.182012,-23.52114,-77.3629,-11.491,20.64311,51.37255,1.04,1247.5,21,17,0,25.09804,25.09804,0.6552256,16.4263,0.07,6.715264,169.2167,346.6,3.712492,5.630209,506,59,4029,0.97,1.813408,1.667969,2.241384,-0.00390625,0,0,0,0,0,0,0,0,0,0,0,0,13.06,0,0,0,0,0,0,0,0,0,64,35,0,0,0,0,0,0,0,0,0,0,0,0,0,0,0,0,0,0,0,0,0,0,0,0,0,0,0,0,0,0,0,0,0,0,0,0,0,0,0,0,0,0,0,0,0,0,0,0,0,0,0,0,0,0,0,13.1,0.09530525,0,26.29442,0.8247507,0.01370939,6.292283,1.480236,1,5.334984
90.007,36.6609,1.473558,6.18019,-7.5139,7.149475,3.925934,85,87,-0.06602529,3.631361,37.28227,0.1418772,67.16605,1.100777,-0.4577042,0.4360698,0.3545034,-6.739052,-23.68074,-76.57683,-15.30714,20.70271,45.4902,1.04,1224.5,21,17,0,25.4902,25.4902,0.6121443,16.3427,0.07,4.442355,165.1222,346.7,2.497554,5.627564,506,59,4029,0.97,1.762168,1.601563,1.831952,-0.00390625,0,0,0,0,0,0,0,0,0,0,0,0,13.06,0,0,0,0,0,0,0,0,0,64,35,0,0,0,0,0,0,0,0,0,0,0,0,0,0,0,0,0,0,0,0,0,0,0,0,0,0,0,0,0,0,0,0,0,0,0,0,0,0,0,0,0,0,0,0,0,0,0,0,0,0,0,0,0,0,0,13.1,0.06688699,0,25.55144,0.8592259,0.01393686,6.140029,1.509297,1,5.334984
91.006,36.6609,1.473558,6.18019,9.794113,1.247665,1.075714,85,87,-0.06602529,3.631361,37.28227,0.1418772,67.16605,1.100777,0.1429439,-1.0554,0.2545181,-4.717591,-23.40044,-77.738,-12.50104,24.23883,45.4902,1.04,1224.5,21,17,0,25.4902,25.4902,0.6121443,16.3427,0.07,4.442355,165.1222,346.8,2.497554,5.627564,506,59,4029,0.97,1.762168,1.601563,1.831952,-0.00390625,0,0,0,0,0,0,0,0,0,0,0,0,13.06,0,0,0,0,0,0,0,0,0,64,35,0,0,0,0,0,0,0,0,0,0,0,0,0,0,0,0,0,0,0,0,0,0,0,0,0,0,0,0,0,0,0,0,0,0,0,0,0,0,0,0,0,0,0,0,0,0,0,0,0,0,0,0,0,0,0,13.1,0.06688699,0,25.55144,0.8592259,0.01393686,6.140029,1.509297,1,5.334984
92.006,36.03953,1.718914,6.182422,6.10556,-16.57953,20.29823,85,87,-0.1459363,4.218777,37.28227,0.1441092,79.70043,1.284063,-0.0907218,1.007154,1.551963,-3.577914,-24.80135,-77.2771,-10.51383,22.80437,56.47059,1.11,1229.5,21,17,0,32.54902,32.15686,0.8215533,17.51392,0.14,5.182032,162.4264,346.8,2.963642,5.625739,506,59,4029,0.97,1.580144,1.367188,1.572824,-0.00390625,0,0,0,0,0,0,0,0,0,0,0,0,13.06,0,0,0,0,0,0,0,0,0,64,35,0,0,0,0,0,0,0,0,0,0,0,0,0,0,0,0,0,0,0,0,0,0,0,0,0,0,0,0,0,0,0,0,0,0,0,0,0,0,0,0,0,0,0,0,0,0,0,0,0,0,0,0,0,0,0,13.1,0.0509048,0,22.91209,0.8872278,0.01415611,6.039786,1.539421,1,5.334984
93.006,36.03953,1.718914,6.182422,-6.361343,-5.282761,13.52081,85,87,-0.1459363,4.218777,37.28227,0.1441092,79.70043,1.284063,-0.2897881,0.2513621,0.5386511,-4.759866,-24.59733,-76.91062,-12.17329,21.00533,56.47059,1.11,1229.5,21,17,0,32.54902,32.15686,0.8215533,17.51392,0.14,5.182032,162.4264,346.9,2.963642,5.625739,506,59,4029,0.97,1.580144,1.367188,1.572824,-0.00390625,0,0,0,0,0,0,0,0,0,0,0,0,13.06,0,0,0,0,0,0,0,0,0,64,35,0,0,0,0,0,0,0,0,0,0,0,0,0,0,0,0,0,0,0,0,0,0,0,0,0,0,0,0,0,0,0,0,0,0,0,0,0,0,0,0,0,0,0,0,0,0,0,0,0,0,0,0,0,0,0,13.1,0.0509048,0,22.91209,0.8872278,0.01415611,6.039786,1.539421,1,5.334984
94.006,36.03953,2.180104,6.185352,-6.895157,2.988449,2.572479,85,87,-0.079911,5.324703,37.28227,0.1470397,101.0843,1.62858,-0.8129568,-1.075361,-1.807908,-6.682241,-23.48068,-76.13835,-16.26665,20.61227,66.27451,1.15,1235.5,21,17,0,32.54902,32.94118,0.8359581,18.23359,0.18,6.572388,160.4862,346.9,3.758796,5.624416,506,59,4029,0.97,1.550864,1.308594,1.528904,-0.00390625,0,0,0,0,0,0,0,0,0,0,0,0,13.06,0,0,0,0,0,0,0,0,0,64,35,0,0,0,0,0,0,0,0,0,0,0,0,0,0,0,0,0,0,0,0,0,0,0,0,0,0,0,0,0,0,0,0,0,0,0,0,0,0,0,0,0,0,0,0,0,0,0,0,0,0,0,0,0,0,0,13.1,0.0509048,0,22.48753,0.9162143,0.01444398,5.967641,1.568508,1,5.334984
95.006,36.03953,2.180104,6.185352,-3.94783,-1.021667,6.763885,85,87,-0.079911,5.324703,37.28227,0.1470397,101.0843,1.62858,-1.779626,1.145967,2.422048,-8.656334,-23.04506,-75.62114,-18.83305,20.59361,66.27451,1.15,1235.5,21,17,0,32.54902,32.94118,0.8359581,18.23359,0.18,6.572388,160.4862,347,3.758796,5.624416,506,59,4029,0.97,1.550864,1.308594,1.528904,-0.00390625,0,0,0,0,0,0,0,0,0,0,0,0,13.06,0,0,0,0,0,0,0,0,0,64,35,0,0,0,0,0,0,0,0,0,0,0,0,0,0,0,0,0,0,0,0,0,0,0,0,0,0,0,0,0,0,0,0,0,0,0,0,0,0,0,0,0,0,0,0,0,0,0,0,0,0,0,0,0,0,0,13.1,0.0509048,0,22.48753,0.9162143,0.01444398,5.967641,1.568508,1,5.334984
96.006,36.6609,2.682741,6.188845,-1.420898,8.209075,-8.138855,85,87,0.07977127,6.463414,37.28227,0.150532,122.2817,2.004061,0.6337514,0.09554806,1.49618,-5.708622,-24.37001,-77.0056,-15.14495,22.45545,67.05882,1.16,1252.5,23,17,0,33.72549,34.11765,0.8722635,18.64522,0.19,8.087695,159.3355,347,4.547015,5.623668,506,59,4029,0.97,1.484984,1.214844,1.478152,-0.00390625,0,0,0,0,0,0,0,0,0,0,0,0,13.06,0,0,0,0,0,0,0,0,0,64,35,0,0,0,0,0,0,0,0,0,0,0,0,0,0,0,0,0,0,0,0,0,0,0,0,0,0,0,0,0,0,0,0,0,0,0,0,0,0,0,0,0,0,0,0,0,0,0,0,0,0,0,0,0,0,0,13.1,0.06685905,0,21.53227,0.9447488,0.01478703,5.924852,1.603503,1,5.334984
97.008,36.6609,2.687011,6.19305,13.46936,8.91362,-5.50853,85,87,0.07977127,6.442838,37.28227,0.1547375,122.4763,2.00725,0.4575169,0.665954,0.6010817,-4.481638,-24.69796,-77.11603,-11.00792,23.91592,67.05882,1.17,1258.5,23,17,0,33.33333,33.33333,0.8575054,18.76843,0.2,8.100567,158.0376,347.1,4.554252,5.622766,506,59,4029,0.97,1.517192,1.265625,1.5494,-0.00390625,0,0,0,0,0,0,0,0,0,0,0,0,13.06,0,0,0,0,0,0,0,0,0,64,35,0,0,0,0,0,0,0,0,0,0,0,0,0,0,0,0,0,0,0,0,0,0,0,0,0,0,0,0,0,0,0,0,0,0,0,0,0,0,0,0,0,0,0,0,0,0,0,0,0,0,0,0,0,0,0,13.1,0.05140034,0,21.99928,0.9791179,0.01520014,5.876592,1.632916,1,5.334984
98.007,36.6609,2.687011,6.19305,-5.416321,-13.3159,18.84892,85,87,0.07977127,6.442838,37.28227,0.1547375,122.4763,2.00725,0.4265408,0.1777145,-0.9699914,-1.504215,-25.37071,-78.76031,-7.57975,25.16667,67.05882,1.17,1258.5,23,17,0,33.33333,33.33333,0.8575054,18.76843,0.2,8.100567,158.0376,347.1,4.554252,5.622766,506,59,4029,0.97,1.517192,1.265625,1.5494,-0.00390625,0,0,0,0,0,0,0,0,0,0,0,0,13.06,0,0,0,0,0,0,0,0,0,64,35,0,0,0,0,0,0,0,0,0,0,0,0,0,0,0,0,0,0,0,0,0,0,0,0,0,0,0,0,0,0,0,0,0,0,0,0,0,0,0,0,0,0,0,0,0,0,0,0,0,0,0,0,0,0,0,13.1,0.05140034,0,21.99928,0.9791179,0.01520014,5.876592,1.632916,1,5.334984
99.007,36.6609,2.687011,6.19305,4.492523,4.227051,-7.478012,85,87,0.07977127,6.442838,37.28227,0.1547375,122.4763,2.00725,-0.3405748,-0.5615517,-0.6033083,-5.081714,-24.70007,-76.28499,-11.43671,22.93232,67.05882,1.17,1258.5,23,17,0,33.33333,33.33333,0.8575054,18.76843,0.2,8.100567,158.0376,347.2,4.554252,5.622766,506,59,4029,0.97,1.517192,1.265625,1.5494,-0.00390625,0,0,0,0,0,0,0,0,0,0,0,0,13.06,0,0,0,0,0,0,0,0,0,64,35,0,0,0,0,0,0,0,0,0,0,0,0,0,0,0,0,0,0,0,0,0,0,0,0,0,0,0,0,0,0,0,0,0,0,0,0,0,0,0,0,0,0,0,0,0,0,0,0,0,0,0,0,0,0,0,13.1,0.05140034,0,21.99928,0.9791179,0.01520014,5.876592,1.632916,1,5.334984
100.006,37.28227,2.414188,6.196249,3.853714,11.37149,-12.07288,85,87,0.07836954,5.807128,37.28227,0.1579363,108.2068,1.803446,0.6887211,-0.6050653,0.9426749,-6.389952,-24.23948,-75.09426,-15.61111,22.34292,55.68628,1.12,1254.5,23,17,0,29.01961,29.01961,0.7667664,17.90926,0.15,7.278085,156.581,347.3,4.023643,5.621617,525,59,4029,0.97,1.687016,1.511719,1.768024,-0.00390625,0,0,0,0,0,0,0,0,0,0,0,0,13.06,0,0,0,0,0,0,0,0,0,67,38,0,0,0,0,0,0,0,0,0,0,0,0,0,0,0,0,0,0,0,0,0,0,0,0,0,0,0,0,0,0,0,0,0,0,0,0,0,0,0,0,0,0,0,0,0,0,0,0,0,0,0,0,0,0,0,13.1,0.05118803,0,24.46173,1.008655,0.01551437,5.82243,1.670426,1,5.334984
101.007,37.28227,1.818957,6.199316,5.26329,-10.17557,1.26622,85,87,0.07836954,4.371864,37.28227,0.1610029,81.5278,1.358797,0.3260925,-0.2619241,-0.4604928,-3.812034,-24.83587,-76.94748,-11.45644,22.22148,56.07843,1.06,1255.5,23,17,0,29.80392,30.58824,0.6979185,16.96334,0.09,5.483634,153.9063,347.5,3.031592,5.619264,525,59,4029,0.97,1.589416,1.382813,1.527928,-0.00390625,0,0,0,0,0,0,0,0,0,0,0,0,13.06,0,0,0,0,0,0,0,0,0,67,38,0,0,0,0,0,0,0,0,0,0,0,0,0,0,0,0,0,0,0,0,0,0,0,0,0,0,0,0,0,0,0,0,0,0,0,0,0,0,0,0,0,0,0,0,0,0,0,0,0,0,0,0,0,0,0,13.1,0.0334923,0,23.04653,1.04611,0.01581561,5.722969,1.699521,1,5.334984
102.007,37.28227,1.818957,6.199316,7.792222,18.87627,-24.34662,85,87,0.07836954,4.371864,37.28227,0.1610029,81.5278,1.358797,0.2727877,-1.812418,-1.670394,-0.7412658,-24.89266,-80.26417,-7.508221,27.04779,56.07843,1.06,1255.5,23,17,0,29.80392,30.58824,0.6979185,16.96334,0.09,5.483634,153.9063,347.5,3.031592,5.619264,525,59,4029,0.97,1.589416,1.382813,1.527928,-0.00390625,0,0,0,0,0,0,0,0,0,0,0,0,13.06,0,0,0,0,0,0,0,0,0,67,38,0,0,0,0,0,0,0,0,0,0,0,0,0,0,0,0,0,0,0,0,0,0,0,0,0,0,0,0,0,0,0,0,0,0,0,0,0,0,0,0,0,0,0,0,0,0,0,0,0,0,0,0,0,0,0,13.1,0.0334923,0,23.04653,1.04611,0.01581561,5.722969,1.699521,1,5.334984
103.007,37.28227,1.818957,6.199316,3.673249,-4.769089,-2.627945,85,87,0.07836954,4.371864,37.28227,0.1610029,81.5278,1.358797,-1.031322,0.8202823,-0.1929784,-8.34694,-24.81592,-75.45676,-18.82534,20.99207,56.07843,1.06,1255.5,23,17,0,29.80392,30.58824,0.6979185,16.96334,0.09,5.483634,153.9063,347.7,3.031592,5.619264,525,59,4029,0.97,1.589416,1.382813,1.527928,-0.00390625,0,0,0,0,0,0,0,0,0,0,0,0,13.06,0,0,0,0,0,0,0,0,0,67,38,0,0,0,0,0,0,0,0,0,0,0,0,0,0,0,0,0,0,0,0,0,0,0,0,0,0,0,0,0,0,0,0,0,0,0,0,0,0,0,0,0,0,0,0,0,0,0,0,0,0,0,0,0,0,0,13.1,0.0334923,0,23.04653,1.04611,0.01581561,5.722969,1.699521,1,5.334984
104.007,37.28227,2.242108,6.202219,-7.491532,3.687363,10.91992,85,87,-4.302114E-16,5.339996,37.28227,0.1639062,100.4939,1.674899,-0.04000749,0.285017,0.7006653,-6.312054,-25.1564,-75.01434,-16.15491,23.52259,69.41177,1.15,1267,23,17,0,34.5098,34.5098,0.8535818,18.5722,0.18,6.759314,152.4448,347.7,3.736844,5.617914,525,59,4029,0.97,1.493768,1.230469,1.472784,-0.00390625,0,0,0,0,0,0,0,0,0,0,0,0,13.06,0,0,0,0,0,0,0,0,0,67,38,0,0,0,0,0,0,0,0,0,0,0,0,0,0,0,0,0,0,0,0,0,0,0,0,0,0,0,0,0,0,0,0,0,0,0,0,0,0,0,0,0,0,0,0,0,0,0,0,0,0,0,0,0,0,0,13.1,0.01782266,0,21.65964,1.075184,0.01610081,5.668624,1.734288,1,5.334984
105.007,37.28227,3.006802,6.207,-9.79422,-4.479004,-3.767426,85,87,-4.302114E-16,7.041763,37.28227,0.1686872,134.7684,2.24614,1.682242,0.7823501,1.092196,-3.473537,-25.74727,-76.37595,-10.90036,24.58365,70.58823,1.19,1288.5,23,17,0,34.90196,36.07843,0.9164236,19.54431,0.22,9.064646,151.8808,347.6,5.011333,5.617391,525,59,4029,0.97,1.426424,1.109375,1.3908,-0.00390625,0,0,0,0,0,0,0,0,0,0,0,0,13.06,0,0,0,0,0,0,0,0,0,67,38,0,0,0,0,0,0,0,0,0,0,0,0,0,0,0,0,0,0,0,0,0,0,0,0,0,0,0,0,0,0,0,0,0,0,0,0,0,0,0,0,0,0,0,0,0,0,0,0,0,0,0,0,0,0,0,13.1,0.002440902,0,20.68315,1.110655,0.01657045,5.647651,1.764024,1,5.334984
106.007,37.28227,3.006802,6.207,-20.03624,0.3591766,14.0564,85,87,-4.302114E-16,7.041763,37.28227,0.1686872,134.7684,2.24614,-1.052376,-0.2980513,-0.1472464,-5.637321,-24.81894,-75.89899,-13.72661,21.82686,70.58823,1.19,1288.5,23,17,0,34.90196,36.07843,0.9164236,19.54431,0.22,9.064646,151.8808,347.6,5.011333,5.617391,525,59,4029,0.97,1.426424,1.109375,1.3908,-0.00390625,0,0,0,0,0,0,0,0,0,0,0,0,13.06,0,0,0,0,0,0,0,0,0,67,38,0,0,0,0,0,0,0,0,0,0,0,0,0,0,0,0,0,0,0,0,0,0,0,0,0,0,0,0,0,0,0,0,0,0,0,0,0,0,0,0,0,0,0,0,0,0,0,0,0,0,0,0,0,0,0,13.1,0.002440902,0,20.68315,1.110655,0.01657045,5.647651,1.764024,1,5.334984
107.007,37.90364,3.115614,6.211066,3.396667,0.541626,9.933609,85,87,0.07997432,7.223713,37.90364,0.1727538,137.3563,2.327425,-1.062492,-0.09348033,0.7600317,-5.973963,-24.68222,-76.09769,-13.06793,22.03053,70.98039,1.21,1301.5,23,17,0,35.29412,36.07843,0.9181805,20.07328,0.24,9.392684,151.5275,347.7,5.10756,5.617048,525,59,4029,0.97,1.4274,1.113281,1.392264,-0.00390625,0,0,0,0,0,0,0,0,0,0,0,0,13.06,0,0,0,0,0,0,0,0,0,67,38,0,0,0,0,0,0,0,0,0,0,0,0,0,0,0,0,0,0,0,0,0,0,0,0,0,0,0,0,0,0,0,0,0,0,0,0,0,0,0,0,0,0,0,0,0,0,0,0,0,0,0,0,0,0,0,13.1,0.01843577,0,20.6973,1.140082,0.01696992,5.634514,1.793808,1,5.334984
108.009,37.90364,3.115614,6.211066,7.826522,7.572891,-11.08089,85,87,0.07997432,7.223713,37.90364,0.1727538,137.3563,2.327425,0.3944545,0.08219697,-0.6037813,-5.303279,-24.57973,-76.94118,-11.40075,24.42356,70.98039,1.21,1301.5,23,17,0,35.29412,36.07843,0.9181805,20.07328,0.24,9.392684,151.5275,347.7,5.10756,5.617048,525,59,4029,0.97,1.4274,1.113281,1.392264,-0.00390625,0,0,0,0,0,0,0,0,0,0,0,0,13.06,0,0,0,0,0,0,0,0,0,67,38,0,0,0,0,0,0,0,0,0,0,0,0,0,0,0,0,0,0,0,0,0,0,0,0,0,0,0,0,0,0,0,0,0,0,0,0,0,0,0,0,0,0,0,0,0,0,0,0,0,0,0,0,0,0,0,13.1,0.01843577,0,20.6973,1.140082,0.01696992,5.634514,1.793808,1,5.334984
109.007,38.52501,3.097605,6.21522,0.6698303,-5.271423,1.085754,85,87,0.15682,7.097433,38.52501,0.1769077,134.3597,2.313972,-0.3592511,0.1167246,0.1898322,-9.097519,-23.45373,-74.81315,-17.60911,23.62951,68.23529,1.19,1317,23,17,0,33.72549,34.5098,0.8987619,19.9766,0.22,9.338392,151.047,347.7,4.996133,5.616553,525,59,4029,0.97,1.485472,1.226563,1.457656,-0.00390625,0,0,0,0,0,0,0,0,0,0,0,0,13.06,0,0,0,0,0,0,0,0,0,67,38,0,0,0,0,0,0,0,0,0,0,0,0,0,0,0,0,0,0,0,0,0,0,0,0,0,0,0,0,0,0,0,0,0,0,0,0,0,0,0,0,0,0,0,0,0,0,0,0,0,0,0,0,0,0,0,13.1,0.04700996,0,21.53934,1.171209,0.01737796,5.616648,1.82289,1,5.334984
110.007,38.52501,3.097605,6.21522,2.122482,-8.60051,4.876892,85,87,0.15682,7.097433,38.52501,0.1769077,134.3597,2.313972,-0.4406668,-0.1906314,-1.153451,-5.999696,-24.09102,-79.1346,-13.50249,26.90586,68.23529,1.19,1317,23,17,0,33.72549,34.5098,0.8987619,19.9766,0.22,9.338392,151.047,347.6,4.996133,5.616553,525,59,4029,0.97,1.485472,1.226563,1.457656,-0.00390625,0,0,0,0,0,0,0,0,0,0,0,0,13.06,0,0,0,0,0,0,0,0,0,67,38,0,0,0,0,0,0,0,0,0,0,0,0,0,0,0,0,0,0,0,0,0,0,0,0,0,0,0,0,0,0,0,0,0,0,0,0,0,0,0,0,0,0,0,0,0,0,0,0,0,0,0,0,0,0,0,13.1,0.04700996,0,21.53934,1.171209,0.01737796,5.616648,1.82289,1,5.334984
111.007,39.14639,2.762112,6.218818,0.1495514,4.154114,-2.300797,85,87,0.157069,6.302409,39.14639,0.1805051,117.9058,2.063352,-1.317694,-0.6948538,-0.05514864,-4.59234,-23.93147,-78.88,-12.53777,27.87307,65.4902,1.15,1322.5,22,17,0,33.72549,33.72549,0.8238489,19.38574,0.18,8.326976,150.2323,347.6,4.384301,5.615669,525,59,4029,0.97,1.525,1.28125,1.489376,-0.00390625,0,0,0,0,0,0,0,0,0,0,0,0,13.06,0,0,0,0,0,0,0,0,0,67,38,0,0,0,0,0,0,0,0,0,0,0,0,0,0,0,0,0,0,0,0,0,0,0,0,0,0,0,0,0,0,0,0,0,0,0,0,0,0,0,0,0,0,0,0,0,0,0,0,0,0,0,0,0,0,0,13.1,0.07903683,0,22.1125,1.201507,0.01773135,5.586354,1.8579,1,5.334984
112.007,39.14639,2.762112,6.218818,0.6563721,-20.71756,4.499268,85,87,0.157069,6.302409,39.14639,0.1805051,117.9058,2.063352,-0.08716126,-1.005218,-1.366458,-4.690463,-24.81203,-79.22884,-14.15381,29.24723,65.4902,1.15,1322.5,22,17,0,33.72549,33.72549,0.8238489,19.38574,0.18,8.326976,150.2323,347.5,4.384301,5.615669,525,59,4029,0.97,1.525,1.28125,1.489376,-0.00390625,0,0,0,0,0,0,0,0,0,0,0,0,13.06,0,0,0,0,0,0,0,0,0,67,38,0,0,0,0,0,0,0,0,0,0,0,0,0,0,0,0,0,0,0,0,0,0,0,0,0,0,0,0,0,0,0,0,0,0,0,0,0,0,0,0,0,0,0,0,0,0,0,0,0,0,0,0,0,0,0,13.1,0.07903683,0,22.1125,1.201507,0.01773135,5.586354,1.8579,1,5.334984
113.007,39.14639,2.729583,6.223083,1.539169,-19.62581,5.896209,85,87,0.08022334,6.179127,39.14639,0.1847702,116.5173,2.039052,-0.4478924,-0.9073983,-1.352869,-5.967162,-24.36163,-78.23531,-16.73759,28.91431,65.88235,1.15,1333,22,17,0,33.72549,33.33333,0.8418922,19.60585,0.18,8.22891,149.2145,347.6,4.332668,5.614506,525,59,4029,0.97,1.571848,1.347656,1.597712,-0.00390625,0,0,0,0,0,0,0,0,0,0,0,0,13.06,0,0,0,0,0,0,0,0,0,67,38,0,0,0,0,0,0,0,0,0,0,0,0,0,0,0,0,0,0,0,0,0,0,0,0,0,0,0,0,0,0,0,0,0,0,0,0,0,0,0,0,0,0,0,0,0,0,0,0,0,0,0,0,0,0,0,13.1,0.07903683,0,22.7918,1.238286,0.01815032,5.548505,1.886984,1,5.334984
114.007,39.14639,2.729583,6.223083,18.8331,3.936355,-4.167007,85,87,0.08022334,6.179127,39.14639,0.1847702,116.5173,2.039052,-1.15266,-1.837264,-0.2922949,-4.955184,-24.84645,-79.26345,-14.26811,29.92818,65.88235,1.15,1333,22,17,0,33.72549,33.33333,0.8418922,19.60585,0.18,8.22891,149.2145,347.5,4.332668,5.614506,525,59,4029,0.97,1.571848,1.347656,1.597712,-0.00390625,0,0,0,0,0,0,0,0,0,0,0,0,13.06,0,0,0,0,0,0,0,0,0,67,38,0,0,0,0,0,0,0,0,0,0,0,0,0,0,0,0,0,0,0,0,0,0,0,0,0,0,0,0,0,0,0,0,0,0,0,0,0,0,0,0,0,0,0,0,0,0,0,0,0,0,0,0,0,0,0,13.1,0.07903683,0,22.7918,1.238286,0.01815032,5.548505,1.886984,1,5.334984
115.009,39.14639,2.528028,6.226378,-0.3709412,10.06075,-3.334549,85,87,-4.163336E-16,5.69721,39.14639,0.1880657,107.9135,1.888487,-1.08068,-0.1247813,-0.3691964,-4.820217,-24.64711,-78.21317,-12.84129,28.13937,59.60784,1.11,1339,22,17,0,30.58824,30.19608,0.7689795,19.00909,0.14,7.621279,148.2187,347.5,4.012739,5.613317,525,59,4029,0.97,1.596248,1.386719,1.582584,-0.00390625,0,0,0,0,0,0,0,0,0,0,0,0,13.06,0,0,0,0,0,0,0,0,0,67,38,0,0,0,0,0,0,0,0,0,0,0,0,0,0,0,0,0,0,0,0,0,0,0,0,0,0,0,0,0,0,0,0,0,0,0,0,0,0,0,0,0,0,0,0,0,0,0,0,0,0,0,0,0,0,0,13.1,0.06308258,0,23.1456,1.268839,0.01847404,5.511478,1.916792,1,5.334984
116.007,39.76776,2.159902,6.229283,2.056152,-8.67514,9.81134,85,87,0.07712275,4.898693,39.76776,0.1909701,90.75879,1.61349,-0.8378694,-0.9279059,-0.4758821,-3.711986,-24.88122,-80.33891,-14.62185,32.49202,56.86274,1.08,1330.5,22,17,0,30.58824,30.58824,0.7229068,18.37792,0.11,6.511486,146.8035,347.5,3.374844,5.61158,525,59,4029,0.97,1.635776,1.453125,1.658224,-0.00390625,0,0,0,0,0,0,0,0,0,0,0,0,13.06,0,0,0,0,0,0,0,0,0,67,38,0,0,0,0,0,0,0,0,0,0,0,0,0,0,0,0,0,0,0,0,0,0,0,0,0,0,0,0,0,0,0,0,0,0,0,0,0,0,0,0,0,0,0,0,0,0,0,0,0,0,0,0,0,0,0,13.1,0.07850713,0,23.71875,1.300855,0.01875934,5.458855,1.946251,1,5.334984
117.007,39.76776,2.159902,6.229283,-4.933548,-5.713593,5.355484,85,87,0.07712275,4.898693,39.76776,0.1909701,90.75879,1.61349,-2.285102,-1.070943,-1.606755,-6.474139,-24.31639,-78.15788,-19.48664,32.47359,56.86274,1.08,1330.5,22,17,0,30.58824,30.58824,0.7229068,18.37792,0.11,6.511486,146.8035,347.4,3.374844,5.61158,525,59,4029,0.97,1.635776,1.453125,1.658224,-0.00390625,0,0,0,0,0,0,0,0,0,0,0,0,13.06,0,0,0,0,0,0,0,0,0,67,38,0,0,0,0,0,0,0,0,0,0,0,0,0,0,0,0,0,0,0,0,0,0,0,0,0,0,0,0,0,0,0,0,0,0,0,0,0,0,0,0,0,0,0,0,0,0,0,0,0,0,0,0,0,0,0,13.1,0.07850713,0,23.71875,1.300855,0.01875934,5.458855,1.946251,1,5.334984
118.007,39.76776,2.159902,6.229283,2.169479,-2.42926,10.04854,85,87,0.07712275,4.898693,39.76776,0.1909701,90.75879,1.61349,-1.502032,-0.9474622,-2.130194,-7.433712,-24.39193,-78.22408,-21.06387,31.2638,56.86274,1.08,1330.5,22,17,0,30.58824,30.58824,0.7229068,18.37792,0.11,6.511486,146.8035,347.4,3.374844,5.61158,525,59,4029,0.97,1.635776,1.453125,1.658224,-0.00390625,0,0,0,0,0,0,0,0,0,0,0,0,13.06,0,0,0,0,0,0,0,0,0,67,38,0,0,0,0,0,0,0,0,0,0,0,0,0,0,0,0,0,0,0,0,0,0,0,0,0,0,0,0,0,0,0,0,0,0,0,0,0,0,0,0,0,0,0,0,0,0,0,0,0,0,0,0,0,0,0,13.1,0.07850713,0,23.71875,1.300855,0.01875934,5.458855,1.946251,1,5.334984
119.007,39.76776,2.028811,6.231964,-9.520279,11.81686,-9.934921,88,89,0.07712275,4.604836,39.76776,0.1936516,85.25035,1.515562,1.217404,1.185468,-2.008904,-4.925231,-24.47817,-78.09922,-16.58286,32.02211,54.5098,1.06,1329.5,22,17,0,25.88235,25.88235,0.7163595,18.02403,0.09,6.116283,145.3579,347.4,3.170014,5.609731,544,59,4029,0.97,1.955416,1.835938,3.016328,-0.00390625,0,0,0,0,0,0,0,0,0,0,0,0,13.1,0,0,0,0,0,0,0,0,0,68,37,0,0,0,0,0,0,0,0,0,0,0,0,0,0,0,0,0,0,0,0,0,0,0,0,0,0,0,0,0,0,0,0,0,0,0,0,0,0,0,0,0,0,0,0,0,0,0,0,0,0,0,0,0,0,0,13.1,0.06283322,0,28.35353,1.33224,0.01902275,5.405101,1.99902,1,5.334984
120.008,39.76776,2.028811,6.231964,-0.7158813,9.062988,-16.55986,88,89,0.07712275,4.604836,39.76776,0.1936516,85.25035,1.515562,-0.2651536,-0.2346103,1.307163,-5.578182,-24.25729,-77.7685,-19.60971,33.89033,54.5098,1.06,1329.5,22,17,0,25.88235,25.88235,0.7163595,18.02403,0.09,6.116283,145.3579,347.4,3.170014,5.609731,544,59,4029,0.97,1.955416,1.835938,3.016328,-0.00390625,0,0,0,0,0,0,0,0,0,0,0,0,13.1,0,0,0,0,0,0,0,0,0,68,37,0,0,0,0,0,0,0,0,0,0,0,0,0,0,0,0,0,0,0,0,0,0,0,0,0,0,0,0,0,0,0,0,0,0,0,0,0,0,0,0,0,0,0,0,0,0,0,0,0,0,0,0,0,0,0,13.1,0.06283322,0,28.35353,1.33224,0.01902275,5.405101,1.99902,1,5.334984
121.008,38.52501,1.518873,6.235542,17.20033,-9.87558,-1.659393,88,89,-0.08803581,3.671082,39.76776,0.1972292,65.88165,1.134629,-1.140714,0.5400397,0.4357691,-5.619698,-24.60768,-78.63511,-16.6131,31.93906,0,1.02,1248.5,22,17,0,14.90196,14.90196,0.5598747,16.2872,0.05,4.578968,142.2414,347.5,2.449794,5.605577,544,59,4029,0.97,15.9903,3.742188,15.9903,-0.00390625,0,0,0,0,0,0,0,0,0,0,0,0,13.1,0,0,0,0,0,0,0,0,0,68,37,0,0,0,0,0,0,0,0,0,0,0,0,0,0,0,0,0,0,0,0,0,0,0,0,0,0,0,0,0,0,0,0,0,0,0,0,0,0,0,0,0,0,0,0,0,0,0,0,0,0,0,0,0,0,0,13.1,0.04522606,0,231.8593,1.38658,0.01937418,5.289214,2.027735,1,5.334984
122.008,38.52501,1.518873,6.235542,-6.150466,-23.18103,-11.13623,88,89,-0.08803581,3.671082,39.76776,0.1972292,65.88165,1.134629,0.8621307,1.104878,-1.540235,-8.664988,-24.70439,-72.67312,-23.55162,35.65282,0,1.02,1248.5,22,17,0,14.90196,14.90196,0.5598747,16.2872,0.05,4.578968,142.2414,347.5,2.449794,5.605577,544,59,4029,0.97,15.9903,3.742188,15.9903,-0.00390625,0,0,0,0,0,0,0,0,0,0,0,0,13.1,0,0,0,0,0,0,0,0,0,68,37,0,0,0,0,0,0,0,0,0,0,0,0,0,0,0,0,0,0,0,0,0,0,0,0,0,0,0,0,0,0,0,0,0,0,0,0,0,0,0,0,0,0,0,0,0,0,0,0,0,0,0,0,0,0,0,13.1,0.04522606,0,231.8593,1.38658,0.01937418,5.289214,2.027735,1,5.334984
123.008,31.06856,0,6.235542,-4.424332,2.797684,4.943436,88,89,-1.051133,0,39.76776,0.1972292,0,0,-0.03192216,-0.9649904,-1.55918,-1.321708,-26.73759,-78.99732,-13.46293,35.95529,0,1.02,1291,22,17,0,16.47059,25.88235,1.11975,16.84163,0.05,0,139.8178,347.6,0,5.602322,544,59,4029,0.97,1.902224,1.742188,1.628944,-0.00390625,0,0,0,0,0,0,0,0,0,0,0,0,13.1,0,0,0,0,0,0,0,0,0,68,37,0,0,0,0,0,0,0,0,0,0,0,0,0,0,0,0,0,0,0,0,0,0,0,0,0,0,0,0,0,0,0,0,0,0,0,0,0,0,0,0,0,0,0,0,0,0,0,0,0,0,0,0,0,0,0,13.1,-0.1473933,0,27.58225,1.410616,0.01937418,5.199092,2.057855,1,5.334984
124.009,31.06856,0,6.235542,-14.63049,-8.526062,4.061508,88,89,-1.051133,0,39.76776,0.1972292,0,0,-1.186247,0.8059151,0.7322711,-4.705719,-25.52388,-77.88713,-18.88131,33.48065,0,1.02,1291,22,17,0,16.47059,25.88235,1.11975,16.84163,0.05,0,139.8178,347.5,0,5.602322,544,59,4029,0.97,1.902224,1.742188,1.628944,-0.00390625,0,0,0,0,0,0,0,0,0,0,0,0,13.1,0,0,0,0,0,0,0,0,0,68,37,0,0,0,0,0,0,0,0,0,0,0,0,0,0,0,0,0,0,0,0,0,0,0,0,0,0,0,0,0,0,0,0,0,0,0,0,0,0,0,0,0,0,0,0,0,0,0,0,0,0,0,0,0,0,0,13.1,-0.1473933,0,27.58225,1.410616,0.01937418,5.199092,2.057855,1,5.334984
125.008,29.82582,0,6.235542,-0.4145203,2.856598,-10.77927,88,89,-1.1171,0,39.76776,0.1972292,0,0,-0.7573292,0.1475452,0.4721895,-1.928239,-27.19925,-77.66202,-17.30328,35.38001,92.54902,1.19,1319.5,22,17,0,36.86274,36.86274,0.8472931,20.08233,0.22,0,137.474,347.5,0,5.599068,544,59,4029,0.97,1.80316,1.746094,2.721576,-0.00390625,0,0,0,0,0,0,0,0,0,0,0,0,13.1,0,0,0,0,0,0,0,0,0,68,37,0,0,0,0,0,0,0,0,0,0,0,0,0,0,0,0,0,0,0,0,0,0,0,0,0,0,0,0,0,0,0,0,0,0,0,0,0,0,0,0,0,0,0,0,0,0,0,0,0,0,0,0,0,0,0,13.1,-0.1781939,0,26.14582,1.434665,0.01937418,5.111939,2.086903,1,5.334984
126.008,29.82582,0,6.235542,2.037247,-4.139404,-23.17969,88,89,-1.1171,0,39.76776,0.1972292,0,0,-0.02199993,-0.3915083,-1.033848,-5.472823,-26.65269,-79.14088,-29.04073,39.89766,92.54902,1.19,1319.5,22,17,0,36.86274,36.86274,0.8472931,20.08233,0.22,0,137.474,347.4,0,5.599068,544,59,4029,0.97,1.80316,1.746094,2.721576,-0.00390625,0,0,0,0,0,0,0,0,0,0,0,0,13.1,0,0,0,0,0,0,0,0,0,68,37,0,0,0,0,0,0,0,0,0,0,0,0,0,0,0,0,0,0,0,0,0,0,0,0,0,0,0,0,0,0,0,0,0,0,0,0,0,0,0,0,0,0,0,0,0,0,0,0,0,0,0,0,0,0,0,13.1,-0.1781939,0,26.14582,1.434665,0.01937418,5.111939,2.086903,1,5.334984
127.008,30.44719,2.31605,6.238557,-6.549408,-29.94237,16.71204,88,89,-0.0741507,5.19621,39.76776,0.2002448,127.112,1.730135,-0.01162838,0.7777164,-1.406176,-1.242658,-27.69507,-81.07521,-21.43067,43.50804,65.4902,1.07,1345,22,17,0,36.86274,37.2549,0.5066394,18.40619,0.1,6.982227,137.3101,347.4,4.726629,5.598576,544,59,4029,0.97,1.260016,0.7382813,1.177056,-0.00390625,0,0,0,0,0,0,0,0,0,0,0,0,13.1,0,0,0,0,0,0,0,0,0,68,37,0,0,0,0,0,0,0,0,0,0,0,0,0,0,0,0,0,0,0,0,0,0,0,0,0,0,0,0,0,0,0,0,0,0,0,0,0,0,0,0,0,0,0,0,0,0,0,0,0,0,0,0,0,0,0,13.1,-0.1782183,0,18.27023,1.458339,0.01967041,5.105845,2.122032,1,5.334984
128.008,30.44719,2.31605,6.238557,-1.085999,21.05832,0.8308105,88,89,-0.0741507,5.19621,39.76776,0.2002448,127.112,1.730135,0.824247,-1.677646,10.24961,-0.9030953,-25.92321,-82.70354,-19.86866,44.13985,65.4902,1.07,1345,22,17,0,36.86274,37.2549,0.5066394,18.40619,0.1,6.982227,137.3101,347.4,4.726629,5.598576,544,59,4029,0.97,1.260016,0.7382813,1.177056,-0.00390625,0,0,0,0,0,0,0,0,0,0,0,0,13.1,0,0,0,0,0,0,0,0,0,68,37,0,0,0,0,0,0,0,0,0,0,0,0,0,0,0,0,0,0,0,0,0,0,0,0,0,0,0,0,0,0,0,0,0,0,0,0,0,0,0,0,0,0,0,0,0,0,0,0,0,0,0,0,0,0,0,13.1,-0.1782183,0,18.27023,1.458339,0.01967041,5.105845,2.122032,1,5.334984
129.008,31.68993,3.24138,6.243636,-7.832443,-6.052475,27.38786,88,89,0.2119892,8.53878,39.76776,0.2053235,170.9206,2.421375,-0.6283602,-0.64423,-0.533559,1.39051,-26.45573,-80.16645,-13.18908,42.80943,59.21569,1.23,1145.5,22,17,0,40,41.17647,0.9830227,18.02013,0.26,9.771832,137.9751,347.4,6.355641,5.599109,544,59,4029,0.97,1.198528,0.6015625,1.138992,-0.00390625,0,0,0,0,0,0,0,0,0,0,0,0,13.1,0,0,0,0,0,0,0,0,0,68,37,0,0,0,0,0,0,0,0,0,0,0,0,0,0,0,0,0,0,0,0,0,0,0,0,0,0,0,0,0,0,0,0,0,0,0,0,0,0,0,0,0,0,0,0,0,0,0,0,0,0,0,0,0,0,0,13.1,-0.16716,0,17.37866,1.48812,0.0201693,5.130571,2.150748,1,5.334984
130.008,32.93267,2.968959,6.247491,10.03944,5.903229,-13.59074,88,89,0.2919911,7.740057,39.76776,0.2091787,150.6478,2.217871,-0.9848292,-0.04213615,0.2258708,-1.340558,-25.26987,-78.16613,-13.94487,38.81031,99.60784,1.26,1157.5,22,17,0,42.7451,43.13726,1.169242,18.65303,0.29,8.95056,138.19,347.3,5.601804,5.599112,544,59,4029,0.97,1.182912,0.5664063,1.137528,-0.00390625,0,0,0,0,0,0,0,0,0,0,0,0,13.1,0,0,0,0,0,0,0,0,0,68,37,0,0,0,0,0,0,0,0,0,0,0,0,0,0,0,0,0,0,0,0,0,0,0,0,0,0,0,0,0,0,0,0,0,0,0,0,0,0,0,0,0,0,0,0,0,0,0,0,0,0,0,0,0,0,0,13.1,-0.1512339,0,17.15222,1.513703,0.020548,5.138564,2.180984,1,5.334984
131.008,32.93267,2.968959,6.247491,5.89032,-10.45578,7.409622,88,89,0.2919911,7.740057,39.76776,0.2091787,150.6478,2.217871,0.8910552,-1.385513,-0.9137114,0.8631927,-26.75624,-79.11333,-15.88246,46.73734,99.60784,1.26,1157.5,22,17,0,42.7451,43.13726,1.169242,18.65303,0.29,8.95056,138.19,347.3,5.601804,5.599112,544,59,4029,0.97,1.182912,0.5664063,1.137528,-0.00390625,0,0,0,0,0,0,0,0,0,0,0,0,13.1,0,0,0,0,0,0,0,0,0,68,37,0,0,0,0,0,0,0,0,0,0,0,0,0,0,0,0,0,0,0,0,0,0,0,0,0,0,0,0,0,0,0,0,0,0,0,0,0,0,0,0,0,0,0,0,0,0,0,0,0,0,0,0,0,0,0,13.1,-0.1512339,0,17.15222,1.513703,0.020548,5.138564,2.180984,1,5.334984
132.008,34.79679,5.489766,6.254882,1.829453,2.416595,-2.653198,88,89,0.3914422,13.5786,39.76776,0.2165694,263.6334,4.100964,-0.2274559,-0.6722978,-1.036102,-1.499655,-24.19534,-80.44913,-17.94773,41.66457,92.94118,1.3,1220,22,17,0,42.7451,43.52941,1.271954,20.28434,0.33,16.55007,140.4753,347.3,9.803146,5.601957,544,59,4029,0.97,1.308816,0.8828125,1.211704,-0.00390625,0,0,0,0,0,0,0,0,0,0,0,0,13.1,0,0,0,0,0,0,0,0,0,68,37,0,0,0,0,0,0,0,0,0,0,0,0,0,0,0,0,0,0,0,0,0,0,0,0,0,0,0,0,0,0,0,0,0,0,0,0,0,0,0,0,0,0,0,0,0,0,0,0,0,0,0,0,0,0,0,13.1,-0.1049162,0,18.97783,1.54169,0.02127401,5.223541,2.210033,1,5.334984
133.008,34.79679,5.489766,6.254882,4.544815,-3.948212,-2.69487,88,89,0.3914422,13.5786,39.76776,0.2165694,263.6334,4.100964,-0.2011801,-0.04738097,-1.205498,2.25056,-26.0962,-80.28982,-9.891071,42.06758,92.94118,1.3,1220,22,17,0,42.7451,43.52941,1.271954,20.28434,0.33,16.55007,140.4753,347.3,9.803146,5.601957,544,59,4029,0.97,1.308816,0.8828125,1.211704,-0.00390625,0,0,0,0,0,0,0,0,0,0,0,0,13.1,0,0,0,0,0,0,0,0,0,68,37,0,0,0,0,0,0,0,0,0,0,0,0,0,0,0,0,0,0,0,0,0,0,0,0,0,0,0,0,0,0,0,0,0,0,0,0,0,0,0,0,0,0,0,0,0,0,0,0,0,0,0,0,0,0,0,13.1,-0.1049162,0,18.97783,1.54169,0.02127401,5.223541,2.210033,1,5.334984
134.008,36.03953,5.11418,6.261539,3.998474,-8.386154,3.935196,88,89,0.3905889,12.24318,39.76776,0.2232264,237.1279,3.820394,-0.7924913,-0.5491512,-1.315556,0.2505686,-24.07553,-79.00904,-12.79757,41.29156,93.33334,1.32,1260.5,24,17,0,43.13726,43.92157,1.20487,21.28014,0.35,15.41779,142.1972,347.3,8.817545,5.60412,544,59,4029,0.97,1.2566,0.7695313,1.228784,-0.00390625,0,0,0,0,0,0,0,0,0,0,0,0,13.1,0,0,0,0,0,0,0,0,0,68,37,0,0,0,0,0,0,0,0,0,0,0,0,0,0,0,0,0,0,0,0,0,0,0,0,0,0,0,0,0,0,0,0,0,0,0,0,0,0,0,0,0,0,0,0,0,0,0,0,0,0,0,0,0,0,0,13.1,-0.07311613,0,18.2207,1.569837,0.02192793,5.287569,2.244697,1,5.334984
135.012,36.03953,5.11418,6.261539,-0.3961182,5.173599,-6.461716,88,89,0.3905889,12.24318,39.76776,0.2232264,237.1279,3.820394,0.7958292,0.6062008,0.1550237,2.463923,-25.22973,-80.93016,-9.917255,43.35043,93.33334,1.32,1260.5,24,17,0,43.13726,43.92157,1.20487,21.28014,0.35,15.41779,142.1972,347.4,8.817545,5.60412,544,59,4029,0.97,1.2566,0.7695313,1.228784,-0.00390625,0,0,0,0,0,0,0,0,0,0,0,0,13.1,0,0,0,0,0,0,0,0,0,68,37,0,0,0,0,0,0,0,0,0,0,0,0,0,0,0,0,0,0,0,0,0,0,0,0,0,0,0,0,0,0,0,0,0,0,0,0,0,0,0,0,0,0,0,0,0,0,0,0,0,0,0,0,0,0,0,13.1,-0.07311613,0,18.2207,1.569837,0.02192793,5.287569,2.244697,1,5.334984
136.009,37.90364,5.895195,6.270805,4.889832,3.637756,-2.739471,88,89,0.3573049,13.43604,39.76776,0.2324924,259.898,4.403828,-0.1111144,0.00548825,-0.3115661,-3.353725,-25.599,-74.66884,-24.7955,42.20127,87.45098,1.36,1324,24,17,0,42.7451,43.13726,1.347671,22.87451,0.39,17.77233,144.8154,347.5,9.664248,5.607607,544,59,4029,0.97,1.343952,0.9296875,1.275632,-0.00390625,0,0,0,0,0,0,0,0,0,0,0,0,13.1,0,0,0,0,0,0,0,0,0,68,37,0,0,0,0,0,0,0,0,0,0,0,0,0,0,0,0,0,0,0,0,0,0,0,0,0,0,0,0,0,0,0,0,0,0,0,0,0,0,0,0,0,0,0,0,0,0,0,0,0,0,0,0,0,0,0,13.1,-0.0488798,0,19.4873,1.60544,0.02283816,5.384928,2.27376,1,5.334984
137.009,37.90364,5.895195,6.270805,8.323471,7.259048,-6.959778,88,89,0.3573049,13.43604,39.76776,0.2324924,259.898,4.403828,0.1118261,-0.6496726,-0.1507416,-3.179223,-24.41297,-75.40165,-21.90834,41.04964,87.45098,1.36,1324,24,17,0,42.7451,43.13726,1.347671,22.87451,0.39,17.77233,144.8154,347.6,9.664248,5.607607,544,59,4029,0.97,1.343952,0.9296875,1.275632,-0.00390625,0,0,0,0,0,0,0,0,0,0,0,0,13.1,0,0,0,0,0,0,0,0,0,68,37,0,0,0,0,0,0,0,0,0,0,0,0,0,0,0,0,0,0,0,0,0,0,0,0,0,0,0,0,0,0,0,0,0,0,0,0,0,0,0,0,0,0,0,0,0,0,0,0,0,0,0,0,0,0,0,13.1,-0.0488798,0,19.4873,1.60544,0.02283816,5.384928,2.27376,1,5.334984
138.009,39.14639,4.620105,6.276805,-3.131531,-9.77684,3.229995,88,89,0.3587263,10.29661,39.76776,0.2384927,197.2177,3.45131,-0.5102072,-0.2546397,0.1205529,-2.96598,-25.05162,-76.17077,-21.52115,39.17179,83.92157,1.32,1354,24,17,0,40.78431,41.17647,1.07316,22.70479,0.35,13.92829,145.8009,347.7,7.333495,5.608886,563,59,4029,0.97,1.3298,0.9257813,1.279048,-0.00390625,0,0,0,0,0,0,0,0,0,0,0,0,13.06,0,0,0,0,0,0,0,0,0,72,35,0,0,0,0,0,0,0,0,0,0,0,0,0,0,0,0,0,0,0,0,0,0,0,0,0,0,0,0,0,0,0,0,0,0,0,0,0,0,0,0,0,0,0,0,0,0,0,0,0,0,0,0,0,0,0,13.1,-0.01679542,0,19.2821,1.635742,0.02342757,5.421574,2.311304,1,5.334984
139.009,39.14639,4.620105,6.276805,7.845184,2.238953,4.859344,88,89,0.3587263,10.29661,39.76776,0.2384927,197.2177,3.45131,-0.3544985,-0.8322617,-0.8083544,0.07003069,-25.32847,-77.24896,-15.82018,41.19964,83.92157,1.32,1354,24,17,0,40.78431,41.17647,1.07316,22.70479,0.35,13.92829,145.8009,347.8,7.333495,5.608886,563,59,4029,0.97,1.3298,0.9257813,1.279048,-0.00390625,0,0,0,0,0,0,0,0,0,0,0,0,13.06,0,0,0,0,0,0,0,0,0,72,35,0,0,0,0,0,0,0,0,0,0,0,0,0,0,0,0,0,0,0,0,0,0,0,0,0,0,0,0,0,0,0,0,0,0,0,0,0,0,0,0,0,0,0,0,0,0,0,0,0,0,0,0,0,0,0,13.1,-0.01679542,0,19.2821,1.635742,0.02342757,5.421574,2.311304,1,5.334984
140.011,40.38913,4.372236,6.284139,-0.9971008,-5.556458,-0.7220154,88,89,0.2837856,9.491827,40.38913,0.245826,180.8943,3.266147,-0.2638491,-0.2993219,-0.0349407,-1.023719,-25.55681,-77.83289,-16.58573,40.60047,80.78432,1.29,1390,24,17,0,38.03922,38.43137,1.034848,22.77872,0.32,13.18104,146.6395,347.8,6.726512,5.609958,563,59,4029,0.97,1.434232,1.132813,1.321016,-0.00390625,0,0,0,0,0,0,0,0,0,0,0,0,13.06,0,0,0,0,0,0,0,0,0,72,35,0,0,0,0,0,0,0,0,0,0,0,0,0,0,0,0,0,0,0,0,0,0,0,0,0,0,0,0,0,0,0,0,0,0,0,0,0,0,0,0,0,0,0,0,0,0,0,0,0,0,0,0,0,0,0,13.1,0.02548447,0,20.79636,1.676397,0.02414794,5.452755,2.340395,1,5.334984
141.010,40.38913,4.372236,6.284139,-0.464737,2.427902,18.41008,88,89,0.2837856,9.491827,40.38913,0.245826,180.8943,3.266147,0.3435194,0.02381117,-1.034044,0.7947626,-25.51378,-79.39669,-13.29515,42.31655,80.78432,1.29,1390,24,17,0,38.03922,38.43137,1.034848,22.77872,0.32,13.18104,146.6395,347.8,6.726512,5.609958,563,59,4029,0.97,1.434232,1.132813,1.321016,-0.00390625,0,0,0,0,0,0,0,0,0,0,0,0,13.06,0,0,0,0,0,0,0,0,0,72,35,0,0,0,0,0,0,0,0,0,0,0,0,0,0,0,0,0,0,0,0,0,0,0,0,0,0,0,0,0,0,0,0,0,0,0,0,0,0,0,0,0,0,0,0,0,0,0,0,0,0,0,0,0,0,0,13.1,0.02548447,0,20.79636,1.676397,0.02414794,5.452755,2.340395,1,5.334984
142.010,41.0105,3.454516,6.288633,3.350113,3.959549,-8.788925,88,89,0.203011,9.060698,41.0105,0.2503208,140.7596,2.580592,-0.3845262,-0.07051719,-0.12112,-3.096686,-24.26538,-77.30229,-17.6908,39.39124,85.09804,1.22,1150.5,22,17,0,36.07843,36.07843,0.8273906,17.83082,0.25,10.41438,146.5263,348,5.234112,5.609665,563,59,4029,0.97,1.403976,1.097656,1.409832,-0.00390625,0,0,0,0,0,0,0,0,0,0,0,0,13.06,0,0,0,0,0,0,0,0,0,72,35,0,0,0,0,0,0,0,0,0,0,0,0,0,0,0,0,0,0,0,0,0,0,0,0,0,0,0,0,0,0,0,0,0,0,0,0,0,0,0,0,0,0,0,0,0,0,0,0,0,0,0,0,0,0,0,13.1,0.2340333,0,20.35765,1.708367,0.02458946,5.448548,2.375456,1,5.334984
143.012,41.0105,3.454516,6.288633,2.412109,-10.40187,4.980881,88,89,0.203011,9.060698,41.0105,0.2503208,140.7596,2.580592,0.3334898,-0.4799806,-0.1832518,-1.345264,-24.83094,-77.99735,-14.44905,41.32894,85.09804,1.22,1150.5,22,17,0,36.07843,36.07843,0.8273906,17.83082,0.25,10.41438,146.5263,348.2,5.234112,5.609665,563,59,4029,0.97,1.403976,1.097656,1.409832,-0.00390625,0,0,0,0,0,0,0,0,0,0,0,0,13.06,0,0,0,0,0,0,0,0,0,72,35,0,0,0,0,0,0,0,0,0,0,0,0,0,0,0,0,0,0,0,0,0,0,0,0,0,0,0,0,0,0,0,0,0,0,0,0,0,0,0,0,0,0,0,0,0,0,0,0,0,0,0,0,0,0,0,13.1,0.2340333,0,20.35765,1.708367,0.02458946,5.448548,2.375456,1,5.334984
144.012,41.0105,2.530599,6.292608,2.730652,-1.830002,-1.970169,88,89,0.07964737,6.781814,41.0105,0.2542956,103.1131,1.890407,0.560222,0.7096907,1.039126,0.7458366,-25.99817,-78.41203,-11.52864,41.51458,60,1.09,1126,22,17,0,28.23529,30.98039,0.6904771,15.69722,0.12,7.62903,145.5833,348.3,3.834237,5.608049,563,59,4029,0.97,1.539152,1.296875,1.443016,-0.00390625,0,0,0,0,0,0,0,0,0,0,0,0,13.06,0,0,0,0,0,0,0,0,0,72,35,0,0,0,0,0,0,0,0,0,0,0,0,0,0,0,0,0,0,0,0,0,0,0,0,0,0,0,0,0,0,0,0,0,0,0,0,0,0,0,0,0,0,0,0,0,0,0,0,0,0,0,0,0,0,0,13.1,0.2648339,0,22.3177,1.746736,0.02497993,5.413482,2.404205,1,5.334984
145.012,41.0105,2.530599,6.292608,-1.729767,-0.2634125,3.273712,88,89,0.07964737,6.781814,41.0105,0.2542956,103.1131,1.890407,0.3446704,-0.2591165,0.1435909,2.646127,-26.16023,-79.06454,-9.91013,41.26722,60,1.09,1126,22,17,0,28.23529,30.98039,0.6904771,15.69722,0.12,7.62903,145.5833,348.5,3.834237,5.608049,563,59,4029,0.97,1.539152,1.296875,1.443016,-0.00390625,0,0,0,0,0,0,0,0,0,0,0,0,13.06,0,0,0,0,0,0,0,0,0,72,35,0,0,0,0,0,0,0,0,0,0,0,0,0,0,0,0,0,0,0,0,0,0,0,0,0,0,0,0,0,0,0,0,0,0,0,0,0,0,0,0,0,0,0,0,0,0,0,0,0,0,0,0,0,0,0,13.1,0.2648339,0,22.3177,1.746736,0.02497993,5.413482,2.404205,1,5.334984
146.012,41.0105,2.346215,6.295657,-3.374069,6.142029,0.2893372,88,89,-3.608225E-16,6.199585,41.0105,0.2573445,95.60011,1.752669,0.2943024,0.08597019,0.6545463,2.846124,-26.1633,-79.44315,-8.781418,38.48135,79.60784,1.13,1142,22,17,0,33.72549,34.5098,0.9277058,16.5045,0.16,7.073164,144.6711,348.6,3.554868,5.606454,563,59,4029,0.97,1.284416,0.8203125,1.289296,-0.00390625,0,0,0,0,0,0,0,0,0,0,0,0,13.06,0,0,0,0,0,0,0,0,0,72,35,0,0,0,0,0,0,0,0,0,0,0,0,0,0,0,0,0,0,0,0,0,0,0,0,0,0,0,0,0,0,0,0,0,0,0,0,0,0,0,0,0,0,0,0,0,0,0,0,0,0,0,0,0,0,0,13.1,0.2488635,0,18.62403,1.778825,0.02527943,5.379562,2.435042,1,5.334984
147.012,41.0105,3.448479,6.300366,-0.5025787,-15.6722,7.997498,88,89,-3.608225E-16,9.021338,41.0105,0.2620531,140.5136,2.576082,1.556942,-0.0264301,0.4199835,4.928275,-27.0323,-80.48401,-6.722042,39.46116,86.27451,1.19,1153.5,22,17,0,39.21569,38.82353,1.013299,17.55587,0.22,10.39618,144.5945,348.8,5.224964,5.606149,563,59,4029,0.97,1.196576,0.6015625,1.233664,-0.00390625,0,0,0,0,0,0,0,0,0,0,0,0,13.06,0,0,0,0,0,0,0,0,0,72,35,0,0,0,0,0,0,0,0,0,0,0,0,0,0,0,0,0,0,0,0,0,0,0,0,0,0,0,0,0,0,0,0,0,0,0,0,0,0,0,0,0,0,0,0,0,0,0,0,0,0,0,0,0,0,0,13.1,0.222436,0,17.35035,1.812331,0.02574195,5.376712,2.464441,1,5.334984
148.012,41.0105,3.448479,6.300366,2.274475,-3.123886,5.122421,88,89,-3.608225E-16,9.021338,41.0105,0.2620531,140.5136,2.576082,-0.003250179,-0.06220311,-1.028427,5.465455,-26.68987,-80.63413,-2.658989,35.61131,86.27451,1.19,1153.5,22,17,0,39.21569,38.82353,1.013299,17.55587,0.22,10.39618,144.5945,348.9,5.224964,5.606149,563,59,4029,0.97,1.196576,0.6015625,1.233664,-0.00390625,0,0,0,0,0,0,0,0,0,0,0,0,13.06,0,0,0,0,0,0,0,0,0,72,35,0,0,0,0,0,0,0,0,0,0,0,0,0,0,0,0,0,0,0,0,0,0,0,0,0,0,0,0,0,0,0,0,0,0,0,0,0,0,0,0,0,0,0,0,0,0,0,0,0,0,0,0,0,0,0,13.1,0.222436,0,17.35035,1.812331,0.02574195,5.376712,2.464441,1,5.334984
149.012,41.63187,4.151397,6.305963,-0.1077271,7.456635,-8.097412,88,89,0.07740142,10.7162,41.63187,0.2676504,166.6304,3.101176,0.02313773,0.9084539,0.01172831,1.487555,-25.73385,-80.44318,-9.317394,35.38487,83.92157,1.24,1169,23,17,0,38.82353,40.78431,1.114362,18.53933,0.27,12.51527,145.0109,349,6.196111,5.606649,563,59,4029,0.97,1.161928,0.5273438,1.177544,-0.00390625,0,0,0,0,0,0,0,0,0,0,0,0,13.06,0,0,0,0,0,0,0,0,0,72,35,0,0,0,0,0,0,0,0,0,0,0,0,0,0,0,0,0,0,0,0,0,0,0,0,0,0,0,0,0,0,0,0,0,0,0,0,0,0,0,0,0,0,0,0,0,0,0,0,0,0,0,0,0,0,0,13.1,0.2059455,0,16.84796,1.845727,0.02629179,5.392195,2.499767,1,5.334984
150.012,41.63187,4.151397,6.305963,-9.179138,-10.02754,13.41594,88,89,0.07740142,10.7162,41.63187,0.2676504,166.6304,3.101176,-0.4468244,-0.3661939,-0.7256405,-0.4842549,-25.13652,-80.37173,-12.17956,33.54328,83.92157,1.24,1169,23,17,0,38.82353,40.78431,1.114362,18.53933,0.27,12.51527,145.0109,349.2,6.196111,5.606649,563,59,4029,0.97,1.161928,0.5273438,1.177544,-0.00390625,0,0,0,0,0,0,0,0,0,0,0,0,13.06,0,0,0,0,0,0,0,0,0,72,35,0,0,0,0,0,0,0,0,0,0,0,0,0,0,0,0,0,0,0,0,0,0,0,0,0,0,0,0,0,0,0,0,0,0,0,0,0,0,0,0,0,0,0,0,0,0,0,0,0,0,0,0,0,0,0,13.1,0.2059455,0,16.84796,1.845727,0.02629179,5.392195,2.499767,1,5.334984
151.013,42.25324,4.20275,6.312552,0.2150574,21.13176,-5.421997,88,89,0.1436004,10.66179,42.25324,0.2742393,166.2108,3.139538,0.1805445,-0.1700101,1.223562,2.421952,-26.36785,-81.66569,-7.504116,35.14684,90.58823,1.27,1189.5,23,17,0,39.60784,40,1.148277,19.2556,0.3,12.67009,145.4575,349.2,6.180511,5.607194,563,59,4029,0.97,1.225368,0.6796875,1.274656,-0.00390625,0,0,0,0,0,0,0,0,0,0,0,0,13.06,0,0,0,0,0,0,0,0,0,72,35,0,0,0,0,0,0,0,0,0,0,0,0,0,0,0,0,0,0,0,0,0,0,0,0,0,0,0,0,0,0,0,0,0,0,0,0,0,0,0,0,0,0,0,0,0,0,0,0,0,0,0,0,0,0,0,13.1,0.1728676,0,17.76784,1.885357,0.02693903,5.408804,2.528724,1,5.334984
152.014,42.25324,4.20275,6.312552,11.45686,13.79123,-13.27156,88,89,0.1436004,10.66179,42.25324,0.2742393,166.2108,3.139538,0.4013472,-0.6277659,-0.01668408,4.313403,-26.02432,-81.07444,-1.912739,32.54591,90.58823,1.27,1189.5,23,17,0,39.60784,40,1.148277,19.2556,0.3,12.67009,145.4575,349.2,6.180511,5.607194,563,59,4029,0.97,1.225368,0.6796875,1.274656,-0.00390625,0,0,0,0,0,0,0,0,0,0,0,0,13.06,0,0,0,0,0,0,0,0,0,72,35,0,0,0,0,0,0,0,0,0,0,0,0,0,0,0,0,0,0,0,0,0,0,0,0,0,0,0,0,0,0,0,0,0,0,0,0,0,0,0,0,0,0,0,0,0,0,0,0,0,0,0,0,0,0,0,13.1,0.1728676,0,17.76784,1.885357,0.02693903,5.408804,2.528724,1,5.334984
153.013,42.87461,4.337756,6.318199,2.277359,-26.40863,21.13031,88,89,0.1460052,10.9262,42.87461,0.2798862,169.0638,3.24039,1.532228,1.151221,0.7563162,4.441997,-26.53525,-81.3298,-1.647369,35.68869,79.21568,1.25,1198,23,17,0,36.47059,36.86274,1.079021,19.08779,0.28,13.07709,145.8718,349.4,6.286598,5.607741,563,59,4029,0.97,1.35908,1.011719,1.354688,-0.00390625,0,0,0,0,0,0,0,0,0,0,0,0,13.06,0,0,0,0,0,0,0,0,0,72,35,0,0,0,0,0,0,0,0,0,0,0,0,0,0,0,0,0,0,0,0,0,0,0,0,0,0,0,0,0,0,0,0,0,0,0,0,0,0,0,0,0,0,0,0,0,0,0,0,0,0,0,0,0,0,0,13.1,0.1570288,0,19.70666,1.918713,0.02749373,5.42421,2.558893,1,5.334984
154.013,42.87461,4.337756,6.318199,8.67038,-2.288513,-4.638626,88,89,0.1460052,10.9262,42.87461,0.2798862,169.0638,3.24039,-0.06785245,0.1186734,-0.6813709,2.880703,-26.59747,-81.74499,-3.874725,34.745,79.21568,1.25,1198,23,17,0,36.47059,36.86274,1.079021,19.08779,0.28,13.07709,145.8718,349.4,6.286598,5.607741,563,59,4029,0.97,1.35908,1.011719,1.354688,-0.00390625,0,0,0,0,0,0,0,0,0,0,0,0,13.06,0,0,0,0,0,0,0,0,0,72,35,0,0,0,0,0,0,0,0,0,0,0,0,0,0,0,0,0,0,0,0,0,0,0,0,0,0,0,0,0,0,0,0,0,0,0,0,0,0,0,0,0,0,0,0,0,0,0,0,0,0,0,0,0,0,0,13.1,0.1570288,0,19.70666,1.918713,0.02749373,5.42421,2.558893,1,5.334984
155.013,42.87461,2.986325,6.322192,-2.073303,5.637298,-0.05357361,88,89,0.07980623,7.487761,42.87461,0.283879,116.3919,2.230844,0.5201193,0.119509,0.3926562,4.741639,-27.0827,-80.22385,0.6807518,31.83571,73.33334,1.15,1203.5,23,17,0,32.94118,32.94118,0.8434711,17.64139,0.18,9.002914,145.3358,349.4,4.328004,5.606661,563,59,4029,0.97,1.408368,1.070313,1.375672,-0.00390625,0,0,0,0,0,0,0,0,0,0,0,0,13.06,0,0,0,0,0,0,0,0,0,72,35,0,0,0,0,0,0,0,0,0,0,0,0,0,0,0,0,0,0,0,0,0,0,0,0,0,0,0,0,0,0,0,0,0,0,0,0,0,0,0,0,0,0,0,0,0,0,0,0,0,0,0,0,0,0,0,13.1,0.1173679,0,20.42134,1.953263,0.02788595,5.404277,2.587995,1,5.334984
156.013,42.87461,2.986325,6.322192,3.190902,6.032379,-6.621506,88,89,0.07980623,7.487761,42.87461,0.283879,116.3919,2.230844,-0.6111763,0.3812363,0.0563562,1.114269,-26.34538,-80.50185,-3.384186,29.44868,73.33334,1.15,1203.5,23,17,0,32.94118,32.94118,0.8434711,17.64139,0.18,9.002914,145.3358,349.4,4.328004,5.606661,563,59,4029,0.97,1.408368,1.070313,1.375672,-0.00390625,0,0,0,0,0,0,0,0,0,0,0,0,13.06,0,0,0,0,0,0,0,0,0,72,35,0,0,0,0,0,0,0,0,0,0,0,0,0,0,0,0,0,0,0,0,0,0,0,0,0,0,0,0,0,0,0,0,0,0,0,0,0,0,0,0,0,0,0,0,0,0,0,0,0,0,0,0,0,0,0,13.1,0.1173679,0,20.42134,1.953263,0.02788595,5.404277,2.587995,1,5.334984
157.013,42.87461,2.986325,6.322192,3.922379,21.16447,2.016235,88,89,0.07980623,7.487761,42.87461,0.283879,116.3919,2.230844,0.4806984,-0.06684221,2.062207,1.234803,-26.63311,-80.34893,-1.605309,30.0188,73.33334,1.15,1203.5,23,17,0,32.94118,32.94118,0.8434711,17.64139,0.18,9.002914,145.3358,349.5,4.328004,5.606661,563,59,4029,0.97,1.408368,1.070313,1.375672,-0.00390625,0,0,0,0,0,0,0,0,0,0,0,0,13.06,0,0,0,0,0,0,0,0,0,72,35,0,0,0,0,0,0,0,0,0,0,0,0,0,0,0,0,0,0,0,0,0,0,0,0,0,0,0,0,0,0,0,0,0,0,0,0,0,0,0,0,0,0,0,0,0,0,0,0,0,0,0,0,0,0,0,13.1,0.1173679,0,20.42134,1.953263,0.02788595,5.404277,2.587995,1,5.334984
158.013,42.87461,2.526317,6.325483,3.100693,-3.100571,-1.718414,90,92,-3.608225E-16,6.425119,42.87461,0.28717,98.46308,1.887209,-0.7973256,-0.3221824,-1.048812,0.1469811,-25.79771,-81.55232,-4.278214,29.80035,66.27451,1.07,1186.5,21,17,0,33.33333,34.5098,0.7672582,16.1823,0.1,7.616123,144.5491,349.5,3.661327,5.605115,583,59,4030,0.97,1.648952,1.449219,1.65188,-0.00390625,0,0,0,0,0,0,0,0,0,0,0,0,13.06,0,0,0,0,0,0,0,0,0,70,38,0,0,0,0,0,0,0,0,0,0,0,0,0,0,0,0,0,0,0,0,0,0,0,0,0,0,0,0,0,0,0,0,0,0,0,0,0,0,0,0,0,0,0,0,0,0,0,0,0,0,0,0,0,0,0,13.1,0.08528352,0,23.9098,1.986661,0.02820923,5.375023,2.640227,1,5.334984
159.013,42.87461,2.526317,6.325483,-5.227295,6.109451,-3.222183,90,92,-3.608225E-16,6.425119,42.87461,0.28717,98.46308,1.887209,0.1436165,0.4284904,0.9895025,-2.232399,-25.31114,-81.6056,-9.52845,31.75538,66.27451,1.07,1186.5,21,17,0,33.33333,34.5098,0.7672582,16.1823,0.1,7.616123,144.5491,349.5,3.661327,5.605115,583,59,4030,0.97,1.648952,1.449219,1.65188,-0.00390625,0,0,0,0,0,0,0,0,0,0,0,0,13.06,0,0,0,0,0,0,0,0,0,70,38,0,0,0,0,0,0,0,0,0,0,0,0,0,0,0,0,0,0,0,0,0,0,0,0,0,0,0,0,0,0,0,0,0,0,0,0,0,0,0,0,0,0,0,0,0,0,0,0,0,0,0,0,0,0,0,13.1,0.08528352,0,23.9098,1.986661,0.02820923,5.375023,2.640227,1,5.334984
160.013,42.87461,2.089163,6.330403,7.188278,1.983475,-4.642288,90,92,-3.608225E-16,5.363035,42.87461,0.2920903,81.425,1.560646,0.4312119,0.8713707,0.2819756,-0.6429783,-25.56116,-81.65541,-6.158539,32.77137,56.86274,1.09,1175.5,21,17,0,26.27451,26.27451,0.7073205,16.44299,0.12,6.298226,142.6841,349.6,3.02777,5.601407,583,59,4030,0.97,1.707512,1.539063,1.741672,-0.00390625,0,0,0,0,0,0,0,0,0,0,0,0,13.06,0,0,0,0,0,0,0,0,0,70,38,0,0,0,0,0,0,0,0,0,0,0,0,0,0,0,0,0,0,0,0,0,0,0,0,0,0,0,0,0,0,0,0,0,0,0,0,0,0,0,0,0,0,0,0,0,0,0,0,0,0,0,0,0,0,0,13.1,0.06061079,0,24.75892,2.047112,0.02869256,5.305674,2.669349,1,5.334984
161.013,42.87461,2.333382,6.333424,-4.963287,-6.751404,8.361496,90,92,-3.608225E-16,5.916977,42.87461,0.2951109,90.94344,1.743083,0.0313002,-0.3324068,-0.3009411,-0.9047852,-25.59544,-81.47679,-4.947407,33.02122,74.11765,1.13,1190,21,17,0,34.5098,34.5098,0.9293807,17.25668,0.16,7.034478,141.857,349.6,3.381711,5.599651,583,59,4030,0.97,1.37372,1.007813,1.37372,-0.00390625,0,0,0,0,0,0,0,0,0,0,0,0,13.06,0,0,0,0,0,0,0,0,0,70,38,0,0,0,0,0,0,0,0,0,0,0,0,0,0,0,0,0,0,0,0,0,0,0,0,0,0,0,0,0,0,0,0,0,0,0,0,0,0,0,0,0,0,0,0,0,0,0,0,0,0,0,0,0,0,0,13.1,0.04468132,0,19.91894,2.080341,0.02898928,5.274919,2.699535,1,5.334984
162.013,42.87461,2.333382,6.333424,-3.760391,-5.441437,0.3801117,90,92,-3.608225E-16,5.916977,42.87461,0.2951109,90.94344,1.743083,-0.3962499,0.3074679,-0.1805173,-0.6016775,-25.50697,-79.95541,-4.551933,31.17392,74.11765,1.13,1190,21,17,0,34.5098,34.5098,0.9293807,17.25668,0.16,7.034478,141.857,349.7,3.381711,5.599651,583,59,4030,0.97,1.37372,1.007813,1.37372,-0.00390625,0,0,0,0,0,0,0,0,0,0,0,0,13.06,0,0,0,0,0,0,0,0,0,70,38,0,0,0,0,0,0,0,0,0,0,0,0,0,0,0,0,0,0,0,0,0,0,0,0,0,0,0,0,0,0,0,0,0,0,0,0,0,0,0,0,0,0,0,0,0,0,0,0,0,0,0,0,0,0,0,13.1,0.04468132,0,19.91894,2.080341,0.02898928,5.274919,2.699535,1,5.334984
163.013,42.87461,3.041443,6.33753,8.213669,-18.88228,-6.226471,90,92,-3.608225E-16,7.696305,42.87461,0.2992171,118.5401,2.272018,0.1318283,-0.03512358,-1.802256,-0.7694291,-25.75352,-81.20693,-3.580158,33.13755,71.76471,1.18,1192.5,21,17,0,34.11765,34.11765,0.9180563,18.0581,0.21,9.169079,141.4881,349.8,4.407885,5.598697,583,59,4030,0.97,1.448872,1.144531,1.392264,-0.00390625,0,0,0,0,0,0,0,0,0,0,0,0,13.06,0,0,0,0,0,0,0,0,0,70,38,0,0,0,0,0,0,0,0,0,0,0,0,0,0,0,0,0,0,0,0,0,0,0,0,0,0,0,0,0,0,0,0,0,0,0,0,0,0,0,0,0,0,0,0,0,0,0,0,0,0,0,0,0,0,0,13.1,0.04468132,0,21.00864,2.114785,0.02939264,5.261204,2.72894,1,5.334984
164.013,42.87461,3.041443,6.33753,6.93898,3.774536,-0.4847564,90,92,-3.608225E-16,7.696305,42.87461,0.2992171,118.5401,2.272018,0.2129385,-0.6409842,-0.1302537,-0.6746648,-25.93444,-80.84138,-5.912777,33.46252,71.76471,1.18,1192.5,21,17,0,34.11765,34.11765,0.9180563,18.0581,0.21,9.169079,141.4881,349.9,4.407885,5.598697,583,59,4030,0.97,1.448872,1.144531,1.392264,-0.00390625,0,0,0,0,0,0,0,0,0,0,0,0,13.06,0,0,0,0,0,0,0,0,0,70,38,0,0,0,0,0,0,0,0,0,0,0,0,0,0,0,0,0,0,0,0,0,0,0,0,0,0,0,0,0,0,0,0,0,0,0,0,0,0,0,0,0,0,0,0,0,0,0,0,0,0,0,0,0,0,0,13.1,0.04468132,0,21.00864,2.114785,0.02939264,5.261204,2.72894,1,5.334984
165.015,42.87461,3.091923,6.341612,-0.8393402,-1.65834,0.3312073,90,92,-3.608225E-16,7.784876,42.87461,0.3032994,120.5075,2.309728,0.2893279,-0.1666384,-0.2582964,-0.4568678,-25.75732,-81.58746,-5.120716,33.43305,74.90196,1.2,1198.5,22,17,0,36.07843,36.47059,0.9618729,18.45657,0.23,9.321263,141.1473,349.9,4.481045,5.597777,583,59,4030,0.97,1.350784,0.9648438,1.340536,-0.00390625,0,0,0,0,0,0,0,0,0,0,0,0,13.06,0,0,0,0,0,0,0,0,0,70,38,0,0,0,0,0,0,0,0,0,0,0,0,0,0,0,0,0,0,0,0,0,0,0,0,0,0,0,0,0,0,0,0,0,0,0,0,0,0,0,0,0,0,0,0,0,0,0,0,0,0,0,0,0,0,0,13.1,0.04468132,0,19.58637,2.148815,0.02979365,5.248529,2.764011,1,5.334984
166.014,42.87461,3.091923,6.341612,4.637589,-1.900391,-0.4672546,90,92,-3.608225E-16,7.784876,42.87461,0.3032994,120.5075,2.309728,-0.5689646,-0.8297156,-0.7804165,-1.83456,-25.40034,-79.95432,-6.730461,32.96138,74.90196,1.2,1198.5,22,17,0,36.07843,36.47059,0.9618729,18.45657,0.23,9.321263,141.1473,349.8,4.481045,5.597777,583,59,4030,0.97,1.350784,0.9648438,1.340536,-0.00390625,0,0,0,0,0,0,0,0,0,0,0,0,13.06,0,0,0,0,0,0,0,0,0,70,38,0,0,0,0,0,0,0,0,0,0,0,0,0,0,0,0,0,0,0,0,0,0,0,0,0,0,0,0,0,0,0,0,0,0,0,0,0,0,0,0,0,0,0,0,0,0,0,0,0,0,0,0,0,0,0,13.1,0.04468132,0,19.58637,2.148815,0.02979365,5.248529,2.764011,1,5.334984
167.014,43.49598,3.354244,6.346869,2.332672,-4.125107,2.147934,90,92,0.06617466,8.299918,43.49598,0.3085565,128.8639,2.505687,-0.5193124,-0.3677135,-0.8725696,-2.445441,-25.30762,-79.80209,-7.112637,32.58889,80.39216,1.23,1219.5,22,17,0,33.72549,34.11765,0.9981495,19.18424,0.26,10.11208,140.9175,349.9,4.791773,5.596996,583,59,4030,0.97,1.460584,1.167969,1.456192,-0.00390625,0,0,0,0,0,0,0,0,0,0,0,0,13.06,0,0,0,0,0,0,0,0,0,70,38,0,0,0,0,0,0,0,0,0,0,0,0,0,0,0,0,0,0,0,0,0,0,0,0,0,0,0,0,0,0,0,0,0,0,0,0,0,0,0,0,0,0,0,0,0,0,0,0,0,0,0,0,0,0,0,13.1,0.05791625,0,21.17847,2.189625,0.03031007,5.239985,2.79301,1,5.334984
168.014,43.49598,3.354244,6.346869,5.335571,4.908752,-5.859619,90,92,0.06617466,8.299918,43.49598,0.3085565,128.8639,2.505687,0.3591718,0.06691845,0.5639775,-0.2949086,-25.61872,-80.1945,-3.234432,31.80462,80.39216,1.23,1219.5,22,17,0,33.72549,34.11765,0.9981495,19.18424,0.26,10.11208,140.9175,349.9,4.791773,5.596996,583,59,4030,0.97,1.460584,1.167969,1.456192,-0.00390625,0,0,0,0,0,0,0,0,0,0,0,0,13.06,0,0,0,0,0,0,0,0,0,70,38,0,0,0,0,0,0,0,0,0,0,0,0,0,0,0,0,0,0,0,0,0,0,0,0,0,0,0,0,0,0,0,0,0,0,0,0,0,0,0,0,0,0,0,0,0,0,0,0,0,0,0,0,0,0,0,13.1,0.05791625,0,21.17847,2.189625,0.03031007,5.239985,2.79301,1,5.334984
169.014,43.49598,3.338921,6.351211,-4.636887,-1.227615,5.110046,90,92,0.06617466,8.330311,43.49598,0.3128984,128.2752,2.49424,0.7389963,0.2982871,0.379671,-1.056539,-25.50683,-79.52248,-5.845844,31.22251,68.62745,1.19,1209.5,22,17,0,34.90196,34.90196,0.9097934,18.40817,0.22,10.06589,140.7231,350,4.769883,5.596328,583,59,4030,0.97,1.436672,1.128906,1.419592,-0.00390625,0,0,0,0,0,0,0,0,0,0,0,0,13.06,0,0,0,0,0,0,0,0,0,70,38,0,0,0,0,0,0,0,0,0,0,0,0,0,0,0,0,0,0,0,0,0,0,0,0,0,0,0,0,0,0,0,0,0,0,0,0,0,0,0,0,0,0,0,0,0,0,0,0,0,0,0,0,0,0,0,13.1,0.04243597,0,20.83174,2.223504,0.03073658,5.232755,2.823087,1,5.334984
170.014,43.49598,3.338921,6.351211,-1.97171,0.5105133,3.209244,90,92,0.06617466,8.330311,43.49598,0.3128984,128.2752,2.49424,-0.6381196,-0.1943699,-0.08671255,-1.790874,-25.5542,-79.69734,-6.597206,29.73438,68.62745,1.19,1209.5,22,17,0,34.90196,34.90196,0.9097934,18.40817,0.22,10.06589,140.7231,350.1,4.769883,5.596328,583,59,4030,0.97,1.436672,1.128906,1.419592,-0.00390625,0,0,0,0,0,0,0,0,0,0,0,0,13.06,0,0,0,0,0,0,0,0,0,70,38,0,0,0,0,0,0,0,0,0,0,0,0,0,0,0,0,0,0,0,0,0,0,0,0,0,0,0,0,0,0,0,0,0,0,0,0,0,0,0,0,0,0,0,0,0,0,0,0,0,0,0,0,0,0,0,13.1,0.04243597,0,20.83174,2.223504,0.03073658,5.232755,2.823087,1,5.334984
171.014,43.49598,2.906541,6.355122,6.34317,5.312439,-5.601273,90,92,-3.608225E-16,7.203913,43.49598,0.3168094,111.6639,2.171243,0.3436682,0.1142923,0.6624501,1.278694,-26.15866,-81.4901,-2.398609,32.73071,68.23529,1.2,1217.5,22,17,0,31.76471,31.37255,0.9354162,18.68564,0.23,8.762387,140.2757,350.2,4.152198,5.595138,583,59,4030,0.97,1.633336,1.449219,1.667984,-0.00390625,0,0,0,0,0,0,0,0,0,0,0,0,13.06,0,0,0,0,0,0,0,0,0,70,38,0,0,0,0,0,0,0,0,0,0,0,0,0,0,0,0,0,0,0,0,0,0,0,0,0,0,0,0,0,0,0,0,0,0,0,0,0,0,0,0,0,0,0,0,0,0,0,0,0,0,0,0,0,0,0,13.1,0.02919618,0,23.68337,2.258477,0.03112077,5.216117,2.851825,1,5.334984
172.014,43.49598,2.906541,6.355122,-1.365204,1.80574,-1.987732,90,92,-3.608225E-16,7.203913,43.49598,0.3168094,111.6639,2.171243,-0.3439048,0.6314951,0.7901803,-2.247239,-25.68121,-80.10958,-9.804569,28.77127,68.23529,1.2,1217.5,22,17,0,31.76471,31.37255,0.9354162,18.68564,0.23,8.762387,140.2757,350.4,4.152198,5.595138,583,59,4030,0.97,1.633336,1.449219,1.667984,-0.00390625,0,0,0,0,0,0,0,0,0,0,0,0,13.06,0,0,0,0,0,0,0,0,0,70,38,0,0,0,0,0,0,0,0,0,0,0,0,0,0,0,0,0,0,0,0,0,0,0,0,0,0,0,0,0,0,0,0,0,0,0,0,0,0,0,0,0,0,0,0,0,0,0,0,0,0,0,0,0,0,0,13.1,0.02919618,0,23.68337,2.258477,0.03112077,5.216117,2.851825,1,5.334984
173.014,43.49598,2.406612,6.358249,-4.032043,1.562576,-4.224823,90,92,-3.608225E-16,6.084778,43.49598,0.3199365,92.45762,1.797787,-0.4175177,0.06912509,0.4029665,-3.239951,-25.37109,-79.19617,-12.81588,30.1973,57.2549,1.12,1193.5,21,17,0,27.05882,27.05882,0.7738562,17.09615,0.15,7.255247,139.5682,350.4,3.438015,5.593407,583,59,4030,0.97,1.701656,1.53125,1.770464,-0.00390625,0,0,0,0,0,0,0,0,0,0,0,0,13.06,0,0,0,0,0,0,0,0,0,70,38,0,0,0,0,0,0,0,0,0,0,0,0,0,0,0,0,0,0,0,0,0,0,0,0,0,0,0,0,0,0,0,0,0,0,0,0,0,0,0,0,0,0,0,0,0,0,0,0,0,0,0,0,0,0,0,13.1,0.01323493,0,24.67401,2.292331,0.03142795,5.18981,2.886831,1,5.334984
174.014,42.87461,2.181894,6.36167,-6.73973,5.244293,-4.719406,90,92,-0.06608722,5.537488,43.49598,0.3233574,85.03921,1.629918,0.4714037,-0.1286961,-0.2499654,-1.682329,-26.03915,-81.11616,-10.54355,30.8983,65.09804,1.09,1189,21,17,0,31.37255,31.76471,0.8500742,16.63183,0.12,6.577785,138.6246,350.5,3.162163,5.591089,583,59,4030,0.97,1.503528,1.234375,1.473272,-0.00390625,0,0,0,0,0,0,0,0,0,0,0,0,13.06,0,0,0,0,0,0,0,0,0,70,38,0,0,0,0,0,0,0,0,0,0,0,0,0,0,0,0,0,0,0,0,0,0,0,0,0,0,0,0,0,0,0,0,0,0,0,0,0,0,0,0,0,0,0,0,0,0,0,0,0,0,0,0,0,0,0,13.1,1.74883E-05,0,21.80116,2.332612,0.03176399,5.154722,2.915829,1,5.334984
175.014,42.87461,2.181894,6.36167,-1.600571,-7.056213,5.87442,90,92,-0.06608722,5.537488,43.49598,0.3233574,85.03921,1.629918,-0.2433726,-0.2677806,-0.8742304,-1.802068,-25.93521,-80.17751,-10.05254,30.66846,65.09804,1.09,1189,21,17,0,31.37255,31.76471,0.8500742,16.63183,0.12,6.577785,138.6246,350.6,3.162163,5.591089,583,59,4030,0.97,1.503528,1.234375,1.473272,-0.00390625,0,0,0,0,0,0,0,0,0,0,0,0,13.06,0,0,0,0,0,0,0,0,0,70,38,0,0,0,0,0,0,0,0,0,0,0,0,0,0,0,0,0,0,0,0,0,0,0,0,0,0,0,0,0,0,0,0,0,0,0,0,0,0,0,0,0,0,0,0,0,0,0,0,0,0,0,0,0,0,0,13.1,1.74883E-05,0,21.80116,2.332612,0.03176399,5.154722,2.915829,1,5.334984
176.017,42.87461,2.181894,6.36167,3.796967,9.930008,-1.594849,90,92,-0.06608722,5.537488,43.49598,0.3233574,85.03921,1.629918,-0.528918,-0.3908639,0.5479029,-0.6650466,-26.36391,-80.19878,-7.886265,30.79055,65.09804,1.09,1189,21,17,0,31.37255,31.76471,0.8500742,16.63183,0.12,6.577785,138.6246,350.6,3.162163,5.591089,583,59,4030,0.97,1.503528,1.234375,1.473272,-0.00390625,0,0,0,0,0,0,0,0,0,0,0,0,13.06,0,0,0,0,0,0,0,0,0,70,38,0,0,0,0,0,0,0,0,0,0,0,0,0,0,0,0,0,0,0,0,0,0,0,0,0,0,0,0,0,0,0,0,0,0,0,0,0,0,0,0,0,0,0,0,0,0,0,0,0,0,0,0,0,0,0,13.1,1.74883E-05,0,21.80116,2.332612,0.03176399,5.154722,2.915829,1,5.334984
177.014,42.87461,2.53985,6.364984,-1.245316,2.971268,2.57753,90,92,-0.06608722,6.432429,43.49598,0.3266713,98.99052,1.897318,-1.176106,1.314098,-0.05345291,-2.466867,-26.103,-79.66987,-8.882057,28.80528,64.31373,1.15,1191.5,21,17,0,30.58824,30.58824,0.8736079,17.58424,0.18,7.65692,138.0768,350.7,3.680939,5.589608,602,59,4030,0.97,1.645048,1.460938,1.669448,-0.00390625,0,0,0,0,0,0,0,0,0,0,0,0,13.06,0,0,0,0,0,0,0,0,0,69,36,0,0,0,0,0,0,0,0,0,0,0,0,0,0,0,0,0,0,0,0,0,0,0,0,0,0,0,0,0,0,0,0,0,0,0,0,0,0,0,0,0,0,0,0,0,0,0,0,0,0,0,0,0,0,0,13.1,1.74883E-05,0,23.8532,2.365867,0.03208952,5.134352,2.953382,1,5.334984
178.014,42.87461,2.2363,6.368739,4.240936,7.286331,-7.740356,90,92,-3.608225E-16,5.706765,43.49598,0.3304261,87.15968,1.670561,-0.7862477,0.2386909,0.2163906,-2.677628,-26.0276,-79.61174,-10.18086,33.31323,59.60784,1.11,1182.5,21,17,0,30.19608,30.19608,0.7769457,16.84441,0.14,6.741805,137.1666,350.7,3.241012,5.587222,602,59,4030,0.97,1.59332,1.382813,1.57868,-0.00390625,0,0,0,0,0,0,0,0,0,0,0,0,13.06,0,0,0,0,0,0,0,0,0,69,36,0,0,0,0,0,0,0,0,0,0,0,0,0,0,0,0,0,0,0,0,0,0,0,0,0,0,0,0,0,0,0,0,0,0,0,0,0,0,0,0,0,0,0,0,0,0,0,0,0,0,0,0,0,0,0,13.1,1.74883E-05,0,23.10314,2.408939,0.03245836,5.100508,2.982472,1,5.334984
179.015,42.87461,2.2363,6.368739,-3.189041,-2.755783,1.443817,90,92,-3.608225E-16,5.706765,43.49598,0.3304261,87.15968,1.670561,-0.2365432,0.262578,0.1824607,-1.431302,-26.00986,-80.07564,-8.516884,32.50772,59.60784,1.11,1182.5,21,17,0,30.19608,30.19608,0.7769457,16.84441,0.14,6.741805,137.1666,350.6,3.241012,5.587222,602,59,4030,0.97,1.59332,1.382813,1.57868,-0.00390625,0,0,0,0,0,0,0,0,0,0,0,0,13.06,0,0,0,0,0,0,0,0,0,69,36,0,0,0,0,0,0,0,0,0,0,0,0,0,0,0,0,0,0,0,0,0,0,0,0,0,0,0,0,0,0,0,0,0,0,0,0,0,0,0,0,0,0,0,0,0,0,0,0,0,0,0,0,0,0,0,13.1,1.74883E-05,0,23.10314,2.408939,0.03245836,5.100508,2.982472,1,5.334984
180.015,42.87461,2.2363,6.368739,4.404938,-4.409134,-5.551727,90,92,-3.608225E-16,5.706765,43.49598,0.3304261,87.15968,1.670561,-0.06157683,-0.2596182,-0.8987009,-0.2004022,-26.22763,-79.56815,-7.568985,30.60609,59.60784,1.11,1182.5,21,17,0,30.19608,30.19608,0.7769457,16.84441,0.14,6.741805,137.1666,350.7,3.241012,5.587222,602,59,4030,0.97,1.59332,1.382813,1.57868,-0.00390625,0,0,0,0,0,0,0,0,0,0,0,0,13.06,0,0,0,0,0,0,0,0,0,69,36,0,0,0,0,0,0,0,0,0,0,0,0,0,0,0,0,0,0,0,0,0,0,0,0,0,0,0,0,0,0,0,0,0,0,0,0,0,0,0,0,0,0,0,0,0,0,0,0,0,0,0,0,0,0,0,13.1,1.74883E-05,0,23.10314,2.408939,0.03245836,5.100508,2.982472,1,5.334984
181.015,42.87461,2.271561,6.371694,4.933884,7.754669,-5.228409,90,92,-3.608225E-16,5.740914,43.49598,0.333381,88.53397,1.696901,-0.2151119,-0.09589729,1.190042,-1.420684,-25.91012,-79.70927,-7.866154,29.78828,72.54902,1.14,1194,22,17,0,35.68628,36.47059,0.8579819,17.46791,0.17,6.848105,136.5034,350.7,3.292115,5.585419,602,59,4030,0.97,1.212192,0.6445313,1.258552,-0.00390625,0,0,0,0,0,0,0,0,0,0,0,0,13.06,0,0,0,0,0,0,0,0,0,69,36,0,0,0,0,0,0,0,0,0,0,0,0,0,0,0,0,0,0,0,0,0,0,0,0,0,0,0,0,0,0,0,0,0,0,0,0,0,0,0,0,0,0,0,0,0,0,0,0,0,0,0,0,0,0,0,13.1,1.74883E-05,0,17.57678,2.44229,0.03274862,5.075848,3.017418,1,5.334984
182.015,43.49598,3.272233,6.376813,1.417404,-10.6144,-2.777145,90,92,0.06594383,8.110288,43.49598,0.3385006,125.7132,2.444423,-0.2593097,0.2079905,-0.4607486,-2.139809,-25.95403,-79.11569,-10.10611,28.9195,84.70588,1.22,1217.5,22,17,0,37.64706,37.64706,1.009115,18.99707,0.25,9.864844,136.3139,350.7,4.674615,5.584516,602,59,4030,0.97,1.291736,0.84375,1.29808,-0.00390625,0,0,0,0,0,0,0,0,0,0,0,0,13.06,0,0,0,0,0,0,0,0,0,69,36,0,0,0,0,0,0,0,0,0,0,0,0,0,0,0,0,0,0,0,0,0,0,0,0,0,0,0,0,0,0,0,0,0,0,0,0,0,0,0,0,0,0,0,0,0,0,0,0,0,0,0,0,0,0,0,13.1,0.01320625,0,18.73017,2.483243,0.03325153,5.068799,3.046186,1,5.334984
183.015,43.49598,3.272233,6.376813,-0.8213806,1.997208,-3.991562,90,92,0.06594383,8.110288,43.49598,0.3385006,125.7132,2.444423,0.2459281,-0.4975404,-1.170466,-2.754517,-25.24758,-79.12829,-11.09877,30.41197,84.70588,1.22,1217.5,22,17,0,37.64706,37.64706,1.009115,18.99707,0.25,9.864844,136.3139,350.7,4.674615,5.584516,602,59,4030,0.97,1.291736,0.84375,1.29808,-0.00390625,0,0,0,0,0,0,0,0,0,0,0,0,13.06,0,0,0,0,0,0,0,0,0,69,36,0,0,0,0,0,0,0,0,0,0,0,0,0,0,0,0,0,0,0,0,0,0,0,0,0,0,0,0,0,0,0,0,0,0,0,0,0,0,0,0,0,0,0,0,0,0,0,0,0,0,0,0,0,0,0,13.1,0.01320625,0,18.73017,2.483243,0.03325153,5.068799,3.046186,1,5.334984
184.015,43.49598,3.870138,6.381841,1.084473,-13.86502,9.455841,90,92,0.06594383,9.506318,43.49598,0.3435282,148.6836,2.89107,0.9661339,0.2623658,-0.4728085,-0.9301291,-25.67385,-79.75256,-8.742989,31.82755,81.56863,1.24,1228.5,22,17,0,37.64706,38.43137,1.002481,19.48295,0.27,11.66736,136.483,350.8,5.528765,5.584478,602,59,4030,0.97,1.290272,0.8242188,1.295152,-0.00390625,0,0,0,0,0,0,0,0,0,0,0,0,13.06,0,0,0,0,0,0,0,0,0,69,36,0,0,0,0,0,0,0,0,0,0,0,0,0,0,0,0,0,0,0,0,0,0,0,0,0,0,0,0,0,0,0,0,0,0,0,0,0,0,0,0,0,0,0,0,0,0,0,0,0,0,0,0,0,0,0,13.1,0.01320625,0,18.70894,2.517003,0.0337454,5.075089,3.076381,1,5.334984
185.015,43.49598,3.870138,6.381841,4.982971,-2.117264,1.743683,90,92,0.06594383,9.506318,43.49598,0.3435282,148.6836,2.89107,0.787442,0.8112507,0.84307,-1.785655,-25.80667,-79.24357,-8.905994,30.32981,81.56863,1.24,1228.5,22,17,0,37.64706,38.43137,1.002481,19.48295,0.27,11.66736,136.483,351,5.528765,5.584478,602,59,4030,0.97,1.290272,0.8242188,1.295152,-0.00390625,0,0,0,0,0,0,0,0,0,0,0,0,13.06,0,0,0,0,0,0,0,0,0,69,36,0,0,0,0,0,0,0,0,0,0,0,0,0,0,0,0,0,0,0,0,0,0,0,0,0,0,0,0,0,0,0,0,0,0,0,0,0,0,0,0,0,0,0,0,0,0,0,0,0,0,0,0,0,0,0,13.1,0.01320625,0,18.70894,2.517003,0.0337454,5.075089,3.076381,1,5.334984
186.015,44.11736,3.719637,6.386863,-3.038193,3.518738,-7.994232,90,92,0.07730813,9.015551,44.11736,0.3485505,140.8889,2.778643,-0.1433475,-0.2601755,-0.5869672,-3.460028,-25.61907,-78.27782,-13.18072,28.40118,84.31373,1.25,1245,22,17,0,38.03922,38.43137,0.9915954,19.90385,0.28,11.21364,136.556,351,5.238922,5.584217,602,59,4030,0.97,1.225856,0.6914063,1.253672,-0.00390625,0,0,0,0,0,0,0,0,0,0,0,0,13.06,0,0,0,0,0,0,0,0,0,69,36,0,0,0,0,0,0,0,0,0,0,0,0,0,0,0,0,0,0,0,0,0,0,0,0,0,0,0,0,0,0,0,0,0,0,0,0,0,0,0,0,0,0,0,0,0,0,0,0,0,0,0,0,0,0,0,13.1,0.01543295,0,17.77491,2.552435,0.03423875,5.077805,3.105378,1,5.334984
187.015,44.11736,3.719637,6.386863,5.259857,6.063065,-6.260483,90,92,0.07730813,9.015551,44.11736,0.3485505,140.8889,2.778643,1.014028,-0.04032464,3.95426,-0.5599399,-25.75715,-79.63877,-8.479733,31.77593,84.31373,1.25,1245,22,17,0,38.03922,38.43137,0.9915954,19.90385,0.28,11.21364,136.556,351.1,5.238922,5.584217,602,59,4030,0.97,1.225856,0.6914063,1.253672,-0.00390625,0,0,0,0,0,0,0,0,0,0,0,0,13.06,0,0,0,0,0,0,0,0,0,69,36,0,0,0,0,0,0,0,0,0,0,0,0,0,0,0,0,0,0,0,0,0,0,0,0,0,0,0,0,0,0,0,0,0,0,0,0,0,0,0,0,0,0,0,0,0,0,0,0,0,0,0,0,0,0,0,13.1,0.01543295,0,17.77491,2.552435,0.03423875,5.077805,3.105378,1,5.334984
188.015,44.73873,4.049644,6.392117,4.822693,-15.63466,-4.139008,90,92,0.1567019,9.717843,44.73873,0.3538041,151.2582,3.025164,0.6070348,1.22532,-0.6881002,-3.846941,-25.1834,-78.31,-14.68155,27.57077,86.66666,1.27,1257.5,22,17,0,38.82353,39.21569,1.030579,20.42535,0.3,12.20852,136.74,351.1,5.624502,5.584216,602,59,4030,0.97,1.290272,0.828125,1.272216,-0.00390625,0,0,0,0,0,0,0,0,0,0,0,0,13.06,0,0,0,0,0,0,0,0,0,69,36,0,0,0,0,0,0,0,0,0,0,0,0,0,0,0,0,0,0,0,0,0,0,0,0,0,0,0,0,0,0,0,0,0,0,0,0,0,0,0,0,0,0,0,0,0,0,0,0,0,0,0,0,0,0,0,13.1,0.0313117,0,18.70894,2.587423,0.03475482,5.084644,3.140319,1,5.334984
189.017,44.73873,4.049644,6.392117,4.757233,-8.434525,8.055527,90,92,0.1567019,9.717843,44.73873,0.3538041,151.2582,3.025164,-0.3940611,0.5821058,-0.2949865,-3.18687,-25.80282,-78.40305,-12.32054,28.79854,86.66666,1.27,1257.5,22,17,0,38.82353,39.21569,1.030579,20.42535,0.3,12.20852,136.74,351.2,5.624502,5.584216,602,59,4030,0.97,1.290272,0.828125,1.272216,-0.00390625,0,0,0,0,0,0,0,0,0,0,0,0,13.06,0,0,0,0,0,0,0,0,0,69,36,0,0,0,0,0,0,0,0,0,0,0,0,0,0,0,0,0,0,0,0,0,0,0,0,0,0,0,0,0,0,0,0,0,0,0,0,0,0,0,0,0,0,0,0,0,0,0,0,0,0,0,0,0,0,0,13.1,0.0313117,0,18.70894,2.587423,0.03475482,5.084644,3.140319,1,5.334984
