Time (sec),Vehicle speed (MPH),Fuel rate (l/hr),Total CO2 (kg), Rotation Rate X (deg/s), Rotation Rate Y (deg/s), Rotation Rate Z (deg/s), Engine coolant temperature (°C),Engine coolant temperature 1 (°C),Acceleration (m/s²),Engine Torque (kg•m),Max Speed (MPH),Total Trip CO2 (kg),Instant CO2 rate (g/km),CO2 flow (g/s), Accel X (m/s²), Accel Y (m/s²), Accel Z (m/s²), Roll (deg), Pitch (deg),Magnetometer X (µT), Magnetometer Y (µT), Magnetometer Z (µT),Calculated load value (%), Intake manifold absolute pressure (bar), Engine RPM (RPM), Intake air temperature (°C), Ambient air temperature (°C), Absolute throttle position B (%), Accelerator pedal position D (%), Accelerator pedal position E (%), Intake manifold absolute pressure (bar), Mass air flow rate (g/s), Boost (bar),Engine Power (kW),Average Trip CO2 Rate (g/km),Altitude (m),Instant fuel economy (l/100 km),Total fuel economy (l/100 km), Time since engine start (sec), Number of warm-ups since DTCs cleared, Distance traveled since DTCs cleared (km), Barometric pressure (bar),O2 sensor lambda wide range (current probe)  (Bank 1  Sensor 1),O2 sensor current wide range (Bank 1  Sensor 1) (mA),O2 sensor lambda wide range (current probe)  (Bank 1  Sensor 2),O2 sensor current wide range (Bank 1  Sensor 2) (mA),O2 sensor lambda wide range (current probe)  (Bank 1  Sensor 3),O2 sensor current wide range (Bank 1  Sensor 3) (mA),O2 sensor lambda wide range (current probe)  (Bank 1  Sensor 4),O2 sensor current wide range (Bank 1  Sensor 4) (mA),O2 sensor lambda wide range (current probe)  (Bank 2  Sensor 1),O2 sensor current wide range (Bank 2  Sensor 1) (mA),O2 sensor lambda wide range (current probe)  (Bank 2  Sensor 2),O2 sensor current wide range (Bank 2  Sensor 2) (mA),O2 sensor lambda wide range (current probe)  (Bank 2  Sensor 3),O2 sensor current wide range (Bank 2  Sensor 3) (mA),O2 sensor lambda wide range (current probe)  (Bank 2  Sensor 4),O2 sensor current wide range (Bank 2  Sensor 4) (mA), Control module voltage (V), Absolute throttle position C (%), Mass air flow sensor B (g/s), Relative throttle B position (%), Commanded boost pressure A (bar), Boost pressure sensor A (bar), Commanded boost pressure B (bar), Boost pressure sensor B (bar), Boost pressure A control status, Boost pressure B control status,Charge air cooler temperature bank 1  sensor 1 (°C),Charge air cooler temperature bank 1  sensor 2 (°C), Manifold surface temperature (°C), Intake manifold absolute pressure A (bar), Intake manifold absolute pressure B (bar),Total run time with EI-AECD #11 Timer 1 active (sec),Total run time with EI-AECD #11 Timer 2 active (sec),Total run time with EI-AECD #12 Timer 1 active (sec),Total run time with EI-AECD #12 Timer 2 active (sec), Diesel aftertreatment status,O2 sensor concentration bank 1 sensor 1 (%),O2 sensor concentration bank 1 sensor 2 (%),O2 sensor concentration bank 2 sensor 1 (%),O2 sensor concentration bank 2 sensor 2 (%), Absolute throttle position G (%),Target SCR Catalyst NH3 Storage A (g/L),Actual/Modelled SCR Catalyst NH3 Storage A (g/L),Target SCR Catalyst NH3 Storage B (g/L),Actual/Modelled SCR Catalyst NH3 Storage B (g/L), Hydrocarbon Doser Flow Rate (g/min), Hydrocarbon Doser Injector Duty Cycle (%),O2 sensor concentration bank 1 sensor 3 (%),O2 sensor concentration bank 1 sensor 4 (%),O2 sensor concentration bank 2 sensor 3 (%),O2 sensor concentration bank 2 sensor 4 (%),O2 sensor lambda bank 1 sensor 3,O2 sensor lambda bank 1 sensor 4,O2 sensor lambda bank 2 sensor 3,O2 sensor lambda bank 2 sensor 4, Engine Fuel Rate (g/s), Vehicle Fuel Rate (g/s), Engine Exhaust Flow Rate (g/s),Fuel System A Use Percentage Bank 1 (%),Fuel System A Use Percentage Bank 2 (%), Cylinder Fuel Rate, Transmission Actual Gear Status, Transmission Actual Gear Ratio, Vehicle Odometer Reading (km), Motorcycle ABS Disable Switch State, Maximum Current Vehicle Speed Limit (MPH), Alternative Fuel Tank Pressure (bar), Alternative Fuel Tank Temperature (°C),Crankcase Pressure Sensor (inH2O),Fuel System Status Bank 1,Fuel System Status Bank 2,Short Term Fuel Trim Bank 1 (%),Long Term Fuel Trim Bank 1 (%),Short Term Fuel Trim Bank 2 (%),Long Term Fuel Trim Bank 2 (%),O2 Sensor Concentration Bank 1 Sensor 5 (%),O2 Sensor Concentration Bank 1 Sensor 6 (%),O2 Sensor Concentration Bank 2 Sensor 5 (%),O2 Sensor Concentration Bank 2 Sensor 6 (%),O2 Sensor Lambda Bank 1 Sensor 5,O2 Sensor Lambda Bank 1 Sensor 6,O2 Sensor Lambda Bank 2 Sensor 5,O2 Sensor Lambda Bank 2 Sensor 6, Input voltage read by the scan tool (V), Acceleration (Avg) (m/s²), A/F Commanded, A/F Actual,Trip Distance (km), Trip Fuel (gal),Trip Fuel Economy (l/100 km),Trip Duration (min), Idling Count, Seconds Idling (sec)
0.000,0,0,0,0.9935303,3.011124,1.734894,0,0,0,0,0,0,0,0,-0.1352387,0.2812847,-0.3777481,-0.0830377,-42.6002,-27.11864,-8.366608,-7.32486,0,0,0,0,0,0,0,0,0,0,0,0,0,344.4,0,0,0,0,0,0,0,0,0,0,0,0,0,0,0,0,0,0,0,0,0,0,0,0,0,0,0,0,0,0,0,0,0,0,0,0,0,0,0,0,0,0,0,0,0,0,0,0,0,0,0,0,0,0,0,0,0,0,0,0,0,0,0,0,0,0,0,0,0,0,0,0,0,0,0,0,0,0,0,0,0,0,0,0,0,0,0,0,0,0,0,0,0,0,0,0,0,0,0
1.000,0,0,0,-12.66422,32.00787,27.93726,0,0,0,0,0,0,0,0,0.5773289,0.7302548,-3.23236,1.427872,-35.94753,-20.30004,6.796852,-28.57603,0,0,0,0,0,0,0,0,0,0,0,0,0,344.5,0,0,0,0,0,0,0,0,0,0,0,0,0,0,0,0,0,0,0,0,0,0,0,0,0,0,0,0,0,0,0,0,0,0,0,0,0,0,0,0,0,0,0,0,0,0,0,0,0,0,0,0,0,0,0,0,0,0,0,0,0,0,0,0,0,0,0,0,0,0,0,0,0,0,0,0,0,0,0,0,0,0,0,0,0,0,0,0,0,0,0,0,0,0,0,0,0,0,0
2.002,0,0,0,0.673584,-21.93829,25.31819,0,0,0,0,0,0,0,0,0.1656248,-0.2417091,-1.34336,4.852981,-40.30281,-25.56407,19.175,-23.80904,0,0,0,0,0,0,0,0,0,0,0,0,0,344.4,0,0,0,0,0,0,0,0,0,0,0,0,0,0,0,0,0,0,0,0,0,0,0,0,0,0,0,0,0,0,0,0,0,0,0,0,0,0,0,0,0,0,0,0,0,0,0,0,0,0,0,0,0,0,0,0,0,0,0,0,0,0,0,0,0,0,0,0,0,0,0,0,0,0,0,0,0,0,0,0,0,0,0,0,0,0,0,0,0,0,0,0,0,0,0,0,0,0,0
3.002,0,0,0,4.521729,-11.82939,-15.85056,41,42,-0.4469027,2.101192,0,0,0,0,-0.9028583,0.1357892,-0.2669261,2.043902,-44.64708,-22.38043,18.86547,-34.29625,41.17647,0.96,785.5,21,20,0,14.90196,14.90196,0,9.710198,-0.04,0,0,344.3,0,5.371032,187,83,4619,0.97,1.6104,1.382813,1.88612,-0.00390625,0,0,0,0,0,0,0,0,0,0,0,0,13.02,0,0,0,0,0,0,0,0,0,29,30,0,0,0,0,0,0,0,0,0,0,0,0,0,0,0,0,0,0,0,0,0,0,0,0,0,0,0,0,0,0,0,0,0,0,0,0,0,0,0,0,0,0,0,0,0,0,0,0,0,0,0,0,0,0,0,13.1,-0.4782801,0,23.3508,0,0,0,0,1,5E-06
4.001,0,0,0,22.6095,-29.38172,30.23694,41,42,-0.4469027,2.101192,0,0,0,0,1.166438,-0.8488848,0.7893575,13.79915,-49.47893,-31.42284,31.41706,-39.85808,41.17647,0.96,785.5,21,20,0,14.90196,14.90196,0,9.710198,-0.04,0,0,344.3,0,5.371032,187,83,4619,0.97,1.6104,1.382813,1.88612,-0.00390625,0,0,0,0,0,0,0,0,0,0,0,0,13.02,0,0,0,0,0,0,0,0,0,29,30,0,0,0,0,0,0,0,0,0,0,0,0,0,0,0,0,0,0,0,0,0,0,0,0,0,0,0,0,0,0,0,0,0,0,0,0,0,0,0,0,0,0,0,0,0,0,0,0,0,0,0,0,0,0,0,13.1,-0.4782801,0,23.3508,0,0,0,0,1,5E-06
5.002,3.728227,0.8532816,30.13339,9.302704,23.37381,10.48993,41,42,0.2418786,2.7363,3.728227,0.002081297,382.451,0.6374183,-0.3763148,-0.1892985,0.9064538,15.8296,-48.83125,-34.66378,25.49061,-51.18491,41.96078,0.98,941,21,20,0,19.60784,19.60784,0.7023528,11.83443,0.01,2.5724,362.4658,344.3,14.22135,5.371255,187,83,4619,0.97,1.72264,1.527344,1.72752,-0.00390625,0,0,0,0,0,0,0,0,0,0,0,0,13.02,0,0,0,0,0,0,0,0,0,29,30,0,0,0,0,0,0,0,0,0,0,0,0,0,0,0,0,0,0,0,0,0,0,0,0,0,0,0,0,0,0,0,0,0,0,0,0,0,0,0,0,0,0,0,0,0,0,0,0,0,0,0,0,0,0,0,13.1,-0.3994942,0,24.97828,0.005742052,0.0002044496,13.47821,0.08862965,1,1.791988
6.001,3.728227,0.8532816,30.13339,17.10953,24.2603,13.09607,41,42,0.2418786,2.7363,3.728227,0.002081297,382.451,0.6374183,0.3675979,1.098725,-0.6762476,15.20659,-46.61128,-38.43759,37.88095,-58.98306,41.96078,0.98,941,21,20,0,19.60784,19.60784,0.7023528,11.83443,0.01,2.5724,362.4658,344.4,14.22135,5.371255,187,83,4619,0.97,1.72264,1.527344,1.72752,-0.00390625,0,0,0,0,0,0,0,0,0,0,0,0,13.02,0,0,0,0,0,0,0,0,0,29,30,0,0,0,0,0,0,0,0,0,0,0,0,0,0,0,0,0,0,0,0,0,0,0,0,0,0,0,0,0,0,0,0,0,0,0,0,0,0,0,0,0,0,0,0,0,0,0,0,0,0,0,0,0,0,0,13.1,-0.3994942,0,24.97828,0.005742052,0.0002044496,13.47821,0.08862965,1,1.791988
7.001,4.349598,1.128676,30.13491,16.84845,8.839401,-5.070129,41,42,0.3187897,3.027454,4.349598,0.003597858,433.6164,0.843143,-1.602067,0.7577295,-1.232084,6.090962,-41.99739,-25.18104,32.83438,-54.2623,58.03922,1,1125,21,20,0,28.62745,30.19608,0.7610167,14.43724,0.03,3.402633,388.8115,344.5,16.12392,5.371435,187,83,4619,0.97,1.236104,0.6875,1.287832,-0.00390625,0,0,0,0,0,0,0,0,0,0,0,0,13.02,0,0,0,0,0,0,0,0,0,29,30,0,0,0,0,0,0,0,0,0,0,0,0,0,0,0,0,0,0,0,0,0,0,0,0,0,0,0,0,0,0,0,0,0,0,0,0,0,0,0,0,0,0,0,0,0,0,0,0,0,0,0,0,0,0,0,13.1,-0.3212603,0,17.92351,0.009253478,0.0003534242,14.45786,0.1190861,1,3.619331
8.003,7.456454,2.089473,30.13777,2.89682,-15.66695,14.66092,41,42,0.4567036,5.416823,7.456454,0.006460059,468.2632,1.560877,-1.133625,-0.3279179,-0.6538413,-1.407673,-41.6362,-29.71821,34.36718,-47.82832,76.07843,1.04,1164,21,20,0,30.98039,30.98039,0.8519632,15.53524,0.07,6.299161,420.8947,344.5,17.41226,5.371789,187,83,4619,0.97,1.328336,0.9023438,1.396656,-0.00390625,0,0,0,0,0,0,0,0,0,0,0,0,13.02,0,0,0,0,0,0,0,0,0,29,30,0,0,0,0,0,0,0,0,0,0,0,0,0,0,0,0,0,0,0,0,0,0,0,0,0,0,0,0,0,0,0,0,0,0,0,0,0,0,0,0,0,0,0,0,0,0,0,0,0,0,0,0,0,0,0,13.1,-0.02711969,0,19.26087,0.0153484,0.0006345834,15.65087,0.1488393,1,5.40452
9.001,7.456454,2.089473,30.13777,12.19545,21.18077,-11.49432,41,42,0.4567036,5.416823,7.456454,0.006460059,468.2632,1.560877,-0.3449755,-0.2138315,-0.157144,3.249743,-39.85632,-32.11796,32.92155,-38.43353,76.07843,1.04,1164,21,20,0,30.98039,30.98039,0.8519632,15.53524,0.07,6.299161,420.8947,344.5,17.41226,5.371789,187,83,4619,0.97,1.328336,0.9023438,1.396656,-0.00390625,0,0,0,0,0,0,0,0,0,0,0,0,13.02,0,0,0,0,0,0,0,0,0,29,30,0,0,0,0,0,0,0,0,0,0,0,0,0,0,0,0,0,0,0,0,0,0,0,0,0,0,0,0,0,0,0,0,0,0,0,0,0,0,0,0,0,0,0,0,0,0,0,0,0,0,0,0,0,0,0,13.1,-0.02711969,0,19.26087,0.0153484,0.0006345834,15.65087,0.1488393,1,5.40452
10.001,7.456454,2.089473,30.13777,1.554138,5.01712,-6.929169,41,42,0.4567036,5.416823,7.456454,0.006460059,468.2632,1.560877,-0.09179002,-0.2229364,0.4933195,0.1043898,-39.90238,-32.50974,30.79281,-39.83473,76.07843,1.04,1164,21,20,0,30.98039,30.98039,0.8519632,15.53524,0.07,6.299161,420.8947,344.4,17.41226,5.371789,187,83,4619,0.97,1.328336,0.9023438,1.396656,-0.00390625,0,0,0,0,0,0,0,0,0,0,0,0,13.02,0,0,0,0,0,0,0,0,0,29,30,0,0,0,0,0,0,0,0,0,0,0,0,0,0,0,0,0,0,0,0,0,0,0,0,0,0,0,0,0,0,0,0,0,0,0,0,0,0,0,0,0,0,0,0,0,0,0,0,0,0,0,0,0,0,0,13.1,-0.02711969,0,19.26087,0.0153484,0.0006345834,15.65087,0.1488393,1,5.40452
11.001,9.941939,2.585257,30.14125,7.92012,-0.2976685,-1.692688,41,42,0.6884838,6.466026,9.941939,0.009935717,434.5287,1.931238,-0.06378129,-0.4495513,1.207508,0.7985722,-41.25826,-34.045,32.18727,-37.42964,69.01961,1.05,1206.5,24,20,0,26.27451,25.88235,0.7772263,16.2573,0.08,7.79381,425.5642,344.4,16.15785,5.372202,187,83,4619,0.97,1.685064,1.484375,1.912472,-0.00390625,0,0,0,0,0,0,0,0,0,0,0,0,13.02,0,0,0,0,0,0,0,0,0,29,30,0,0,0,0,0,0,0,0,0,0,0,0,0,0,0,0,0,0,0,0,0,0,0,0,0,0,0,0,0,0,0,0,0,0,0,0,0,0,0,0,0,0,0,0,0,0,0,0,0,0,0,0,0,0,0,13.1,0.1133203,0,24.43343,0.02334716,0.0009760036,15.82451,0.184138,1,5.40452
12.001,11.18468,1.664599,30.14386,-37.63553,-5.185791,27.73836,41,42,0.4411544,4.118973,11.18468,0.01254391,248.6977,1.243489,2.015892,0.8482432,-0.7394532,22.78927,-32.89099,-29.86331,44.22417,-38.60352,24.70588,1,1219.5,24,20,0,15.29412,14.90196,0.5376195,15.49197,0.03,5.01829,370.769,344.3,9.247766,5.372396,187,83,4619,0.97,3.868864,2.777344,15.9903,-0.00390625,0,0,0,0,0,0,0,0,0,0,0,0,13.02,0,0,0,0,0,0,0,0,0,29,30,0,0,0,0,0,0,0,0,0,0,0,0,0,0,0,0,0,0,0,0,0,0,0,0,0,0,0,0,0,0,0,0,0,0,0,0,0,0,0,0,0,0,0,0,0,0,0,0,0,0,0,0,0,0,0,13.1,0.07909913,0,56.09853,0.03383214,0.001232211,13.78696,0.2134638,1,5.40452
13.001,11.18468,1.664599,30.14386,-14.85152,8.617447,1.30101,41,42,0.4411544,4.118973,11.18468,0.01254391,248.6977,1.243489,0.008519857,0.08110472,-0.321681,15.57661,-34.37646,-19.69719,40.19528,-54.65999,24.70588,1,1219.5,24,20,0,15.29412,14.90196,0.5376195,15.49197,0.03,5.01829,370.769,344.3,9.247766,5.372396,187,83,4619,0.97,3.868864,2.777344,15.9903,-0.00390625,0,0,0,0,0,0,0,0,0,0,0,0,13.02,0,0,0,0,0,0,0,0,0,29,30,0,0,0,0,0,0,0,0,0,0,0,0,0,0,0,0,0,0,0,0,0,0,0,0,0,0,0,0,0,0,0,0,0,0,0,0,0,0,0,0,0,0,0,0,0,0,0,0,0,0,0,0,0,0,0,13.1,0.07909913,0,56.09853,0.03383214,0.001232211,13.78696,0.2134638,1,5.40452
14.001,9.320568,0.4114553,30.1444,-13.19586,32.86786,-1.291458,41,42,-0.1027258,1.193278,11.18468,0.01308885,73.76766,0.3073652,-0.0005717318,0.7608426,-0.4352747,4.803845,-35.26179,-10.95655,33.89608,-53.71013,40,0.98,1040.5,24,20,0,24.31373,23.92157,0.367287,12.95368,0.01,1.24042,317.5837,344.3,2.743033,5.372303,187,83,4619,0.97,1.802184,1.617188,1.579656,-0.00390625,0,0,0,0,0,0,0,0,0,0,0,0,13.02,0,0,0,0,0,0,0,0,0,29,30,0,0,0,0,0,0,0,0,0,0,0,0,0,0,0,0,0,0,0,0,0,0,0,0,0,0,0,0,0,0,0,0,0,0,0,0,0,0,0,0,0,0,0,0,0,0,0,0,0,0,0,0,0,0,0,13.1,0.04795813,0,26.13167,0.04121386,0.001285742,11.80928,0.243499,1,5.40452
15.001,9.320568,0.4114553,30.1444,2.195465,16.63524,12.34424,41,42,-0.1027258,1.193278,11.18468,0.01308885,73.76766,0.3073652,0.8483959,-0.2797856,0.751936,6.744333,-36.8005,-1.901711,35.73823,-54.26883,40,0.98,1040.5,24,20,0,24.31373,23.92157,0.367287,12.95368,0.01,1.24042,317.5837,344.2,2.743033,5.372303,187,83,4619,0.97,1.802184,1.617188,1.579656,-0.00390625,0,0,0,0,0,0,0,0,0,0,0,0,13.02,0,0,0,0,0,0,0,0,0,29,30,0,0,0,0,0,0,0,0,0,0,0,0,0,0,0,0,0,0,0,0,0,0,0,0,0,0,0,0,0,0,0,0,0,0,0,0,0,0,0,0,0,0,0,0,0,0,0,0,0,0,0,0,0,0,0,13.1,0.04795813,0,26.13167,0.04121386,0.001285742,11.80928,0.243499,1,5.40452
16.001,10.56331,1.127447,30.14592,2.407196,6.776413,4.170761,41,42,-0.08057173,2.801301,11.18468,0.01461082,178.3536,0.8422256,-0.8136473,-0.1933321,0.6035749,0.8278102,-35.43501,-0.01702118,32.03168,-50.25436,56.47059,1.01,1214.5,24,20,0,25.88235,26.27451,0.72855,15.58274,0.04,3.398931,293.9952,344.3,6.632039,5.372356,187,83,4619,0.97,1.541592,1.273438,1.55672,-0.00390625,0,0,0,0,0,0,0,0,0,0,0,0,13.02,0,0,0,0,0,0,0,0,0,29,30,0,0,0,0,0,0,0,0,0,0,0,0,0,0,0,0,0,0,0,0,0,0,0,0,0,0,0,0,0,0,0,0,0,0,0,0,0,0,0,0,0,0,0,0,0,0,0,0,0,0,0,0,0,0,0,13.1,0.1224527,0,22.35308,0.04969749,0.001435248,10.93214,0.2729298,1,5.40452
17.002,10.56331,1.127447,30.14592,-2.111816,4.95871,-9.796432,41,42,-0.08057173,2.801301,11.18468,0.01461082,178.3536,0.8422256,-0.600873,0.3711336,0.4399751,-2.473581,-34.01078,-0.1891937,25.94947,-46.72246,56.47059,1.01,1214.5,24,20,0,25.88235,26.27451,0.72855,15.58274,0.04,3.398931,293.9952,344.3,6.632039,5.372356,187,83,4619,0.97,1.541592,1.273438,1.55672,-0.00390625,0,0,0,0,0,0,0,0,0,0,0,0,13.02,0,0,0,0,0,0,0,0,0,29,30,0,0,0,0,0,0,0,0,0,0,0,0,0,0,0,0,0,0,0,0,0,0,0,0,0,0,0,0,0,0,0,0,0,0,0,0,0,0,0,0,0,0,0,0,0,0,0,0,0,0,0,0,0,0,0,13.1,0.1224527,0,22.35308,0.04969749,0.001435248,10.93214,0.2729298,1,5.40452
18.002,11.18468,1.748711,30.14823,12.76717,0.7501526,28.86052,41,42,0.2327916,4.000684,11.18468,0.01691761,261.2643,1.306322,0.8530567,-2.243687,2.27372,-0.0559166,-53.08418,-11.29523,28.71812,-33.12724,58.82353,1.03,1319,23,20,0,26.66667,24.31373,0.685746,17.25865,0.06,5.271862,288.7904,344.3,9.715053,5.372539,187,83,4619,0.97,1.865624,1.703125,1.857816,-0.00390625,0,0,0,0,0,0,0,0,0,0,0,0,13.02,0,0,0,0,0,0,0,0,0,29,30,0,0,0,0,0,0,0,0,0,0,0,0,0,0,0,0,0,0,0,0,0,0,0,0,0,0,0,0,0,0,0,0,0,0,0,0,0,0,0,0,0,0,0,0,0,0,0,0,0,0,0,0,0,0,0,13.1,0.1380873,0,27.05155,0.05858093,0.001661848,10.7386,0.3086757,1,5.40452
19.002,11.18468,1.748711,30.14823,13.54552,27.84131,2.624954,41,42,0.2327916,4.000684,11.18468,0.01691761,261.2643,1.306322,-0.5132295,0.9359829,-0.6433296,-4.075163,-38.02055,-4.022789,22.90112,-41.53716,58.82353,1.03,1319,23,20,0,26.66667,24.31373,0.685746,17.25865,0.06,5.271862,288.7904,344.3,9.715053,5.372539,187,83,4619,0.97,1.865624,1.703125,1.857816,-0.00390625,0,0,0,0,0,0,0,0,0,0,0,0,13.02,0,0,0,0,0,0,0,0,0,29,30,0,0,0,0,0,0,0,0,0,0,0,0,0,0,0,0,0,0,0,0,0,0,0,0,0,0,0,0,0,0,0,0,0,0,0,0,0,0,0,0,0,0,0,0,0,0,0,0,0,0,0,0,0,0,0,13.1,0.1380873,0,27.05155,0.05858093,0.001661848,10.7386,0.3086757,1,5.40452
20.002,11.80605,1.515109,30.15065,-1.829697,-0.3900604,-7.682907,41,42,0.1436159,3.484745,11.80605,0.01933256,214.4494,1.131816,-0.2931616,0.3237436,-0.3256083,-8.739866,-34.264,-3.764961,17.03519,-40.53647,31.76471,1.01,1312,23,20,0,21.17647,21.56863,0.5234185,16.89056,0.04,4.567618,277.0427,344.4,7.97425,5.372681,187,83,4619,0.97,2.002752,1.816406,1.993968,-0.00390625,0,0,0,0,0,0,0,0,0,0,0,0,13.02,0,0,0,0,0,0,0,0,0,29,30,0,0,0,0,0,0,0,0,0,0,0,0,0,0,0,0,0,0,0,0,0,0,0,0,0,0,0,0,0,0,0,0,0,0,0,0,0,0,0,0,0,0,0,0,0,0,0,0,0,0,0,0,0,0,0,13.1,0.2405561,0,29.0399,0.0697819,0.001899073,10.30177,0.3378586,1,5.40452
21.002,11.80605,1.515109,30.15065,-3.994842,-40.39413,-6.379714,41,42,0.1436159,3.484745,11.80605,0.01933256,214.4494,1.131816,1.985021,0.08552796,0.04693357,-5.739875,-40.76747,-11.42975,25.45941,-43.77689,31.76471,1.01,1312,23,20,0,21.17647,21.56863,0.5234185,16.89056,0.04,4.567618,277.0427,344.3,7.97425,5.372681,187,83,4619,0.97,2.002752,1.816406,1.993968,-0.00390625,0,0,0,0,0,0,0,0,0,0,0,0,13.02,0,0,0,0,0,0,0,0,0,29,30,0,0,0,0,0,0,0,0,0,0,0,0,0,0,0,0,0,0,0,0,0,0,0,0,0,0,0,0,0,0,0,0,0,0,0,0,0,0,0,0,0,0,0,0,0,0,0,0,0,0,0,0,0,0,0,13.1,0.2405561,0,29.0399,0.0697819,0.001899073,10.30177,0.3378586,1,5.40452
22.002,11.80605,0.7744615,30.15167,9.420609,-22.23744,-24.89726,41,42,0.06544298,1.910103,11.80605,0.02035224,109.6177,0.5785381,-1.09458,-0.8911173,0.6678465,-2.804271,-36.87388,-6.433426,32.92594,-55.04932,0,0.99,1223.5,23,20,0,15.68627,16.07843,0.4981066,15.43931,0.02,2.33478,257.1506,344.2,4.07611,5.372622,207,83,4619,0.97,3.287656,2.585938,1.790472,-0.00390625,0,0,0,0,0,0,0,0,0,0,0,0,14.84,0,0,0,0,0,0,0,0,0,32,31,0,0,0,0,0,0,0,0,0,0,0,0,0,0,0,0,0,0,0,0,0,0,0,0,0,0,0,0,0,0,0,0,0,0,0,0,0,0,0,0,0,0,0,0,0,0,0,0,0,0,0,0,0,0,0,14.1,0.2405565,0,47.67101,0.07914521,0.001999237,9.562083,0.3763199,1,5.40452
23.002,11.80605,0.7744615,30.15167,1.923492,-24.76474,-15.28705,41,42,0.06544298,1.910103,11.80605,0.02035224,109.6177,0.5785381,-0.6109831,0.677152,-1.143056,-4.016366,-35.20604,-23.9549,25.35212,-51.11078,0,0.99,1223.5,23,20,0,15.68627,16.07843,0.4981066,15.43931,0.02,2.33478,257.1506,344.3,4.07611,5.372622,207,83,4619,0.97,3.287656,2.585938,1.790472,-0.00390625,0,0,0,0,0,0,0,0,0,0,0,0,14.84,0,0,0,0,0,0,0,0,0,32,31,0,0,0,0,0,0,0,0,0,0,0,0,0,0,0,0,0,0,0,0,0,0,0,0,0,0,0,0,0,0,0,0,0,0,0,0,0,0,0,0,0,0,0,0,0,0,0,0,0,0,0,0,0,0,0,14.1,0.2405565,0,47.67101,0.07914521,0.001999237,9.562083,0.3763199,1,5.40452
24.002,9.941939,0,30.15167,2.753311,-3.190918,-3.312836,41,42,-0.1804297,0,11.80605,0.02035224,0,0,-0.9244256,0.3303423,-0.3695242,-6.357465,-37.3842,-30.80261,20.67728,-44.7877,29.41176,0.99,1099,23,20,0,21.56863,21.17647,0.5039991,13.86825,0.02,0,227.6313,344.2,0,5.372357,207,83,4619,0.97,2.223328,2.019531,2.063264,-0.00390625,0,0,0,0,0,0,0,0,0,0,0,0,14.84,0,0,0,0,0,0,0,0,0,32,31,0,0,0,0,0,0,0,0,0,0,0,0,0,0,0,0,0,0,0,0,0,0,0,0,0,0,0,0,0,0,0,0,0,0,0,0,0,0,0,0,0,0,0,0,0,0,0,0,0,0,0,0,0,0,0,14.1,0.1560945,0,32.23825,0.08940877,0.001999237,8.464417,0.4053997,1,5.40452
25.002,9.941939,0,30.15167,-10.82239,-0.9221343,-14.09129,41,42,-0.1804297,0,11.80605,0.02035224,0,0,-0.4659664,0.01880946,0.8402298,-4.589128,-39.01825,-34.28839,21.28957,-42.65221,29.41176,0.99,1099,23,20,0,21.56863,21.17647,0.5039991,13.86825,0.02,0,227.6313,344.2,0,5.372357,207,83,4619,0.97,2.223328,2.019531,2.063264,-0.00390625,0,0,0,0,0,0,0,0,0,0,0,0,14.84,0,0,0,0,0,0,0,0,0,32,31,0,0,0,0,0,0,0,0,0,0,0,0,0,0,0,0,0,0,0,0,0,0,0,0,0,0,0,0,0,0,0,0,0,0,0,0,0,0,0,0,0,0,0,0,0,0,0,0,0,0,0,0,0,0,0,14.1,0.1560945,0,32.23825,0.08940877,0.001999237,8.464417,0.4053997,1,5.40452
26.004,9.941939,0.6335909,30.15249,-27.20949,-30.5514,-50.32428,41,42,-0.1804297,1.67126,11.80605,0.02117831,106.4936,0.4733049,0.112666,0.5609128,-0.8059232,-3.60622,-34.90956,-35.10572,15.37969,-36.82684,40.78431,0.99,1144,19,20,0,21.96078,21.96078,0.5254015,14.43611,0.02,1.910095,218.0746,344.1,3.95994,5.372306,207,83,4619,0.97,1.938824,1.769531,1.926136,-0.00390625,0,0,0,0,0,0,0,0,0,0,0,0,14.84,0,0,0,0,0,0,0,0,0,32,31,0,0,0,0,0,0,0,0,0,0,0,0,0,0,0,0,0,0,0,0,0,0,0,0,0,0,0,0,0,0,0,0,0,0,0,0,0,0,0,0,0,0,0,0,0,0,0,0,0,0,0,0,0,0,0,13.1,0.1407126,0,28.11295,0.09711497,0.002080384,8.109053,0.4404042,1,5.40452
27.002,9.941939,0.6335909,30.15249,8.186523,-7.675339,-5.878403,41,42,-0.1804297,1.67126,11.80605,0.02117831,106.4936,0.4733049,0.9311763,0.2390432,-0.2031897,-5.437868,-36.03511,-36.76971,5.237917,-25.46873,40.78431,0.99,1144,19,20,0,21.96078,21.96078,0.5254015,14.43611,0.02,1.910095,218.0746,344.1,3.95994,5.372306,207,83,4619,0.97,1.938824,1.769531,1.926136,-0.00390625,0,0,0,0,0,0,0,0,0,0,0,0,14.84,0,0,0,0,0,0,0,0,0,32,31,0,0,0,0,0,0,0,0,0,0,0,0,0,0,0,0,0,0,0,0,0,0,0,0,0,0,0,0,0,0,0,0,0,0,0,0,0,0,0,0,0,0,0,0,0,0,0,0,0,0,0,0,0,0,0,13.1,0.1407126,0,28.11295,0.09711497,0.002080384,8.109053,0.4404042,1,5.40452
28.002,9.941939,0.6335909,30.15249,3.370712,-6.356964,-7.976822,41,42,-0.1804297,1.67126,11.80605,0.02117831,106.4936,0.4733049,0.1406567,-0.2062721,-0.1479352,-0.9980172,-41.74485,-39.26756,10.31387,-21.60843,40.78431,0.99,1144,19,20,0,21.96078,21.96078,0.5254015,14.43611,0.02,1.910095,218.0746,344.1,3.95994,5.372306,207,83,4619,0.97,1.938824,1.769531,1.926136,-0.00390625,0,0,0,0,0,0,0,0,0,0,0,0,14.84,0,0,0,0,0,0,0,0,0,32,31,0,0,0,0,0,0,0,0,0,0,0,0,0,0,0,0,0,0,0,0,0,0,0,0,0,0,0,0,0,0,0,0,0,0,0,0,0,0,0,0,0,0,0,0,0,0,0,0,0,0,0,0,0,0,0,13.1,0.1407126,0,28.11295,0.09711497,0.002080384,8.109053,0.4404042,1,5.40452
29.002,9.941939,0.6335909,30.15249,-1.627625,-5.264679,-1.113953,41,42,-0.1804297,1.67126,11.80605,0.02117831,106.4936,0.4733049,0.1511388,-0.01939433,-0.5100958,-3.567629,-39.49852,-35.7984,6.597986,-21.91826,40.78431,0.99,1144,19,20,0,21.96078,21.96078,0.5254015,14.43611,0.02,1.910095,218.0746,344.1,3.95994,5.372306,207,83,4619,0.97,1.938824,1.769531,1.926136,-0.00390625,0,0,0,0,0,0,0,0,0,0,0,0,14.84,0,0,0,0,0,0,0,0,0,32,31,0,0,0,0,0,0,0,0,0,0,0,0,0,0,0,0,0,0,0,0,0,0,0,0,0,0,0,0,0,0,0,0,0,0,0,0,0,0,0,0,0,0,0,0,0,0,0,0,0,0,0,0,0,0,0,13.1,0.1407126,0,28.11295,0.09711497,0.002080384,8.109053,0.4404042,1,5.40452
30.002,9.941939,0.6335909,30.15249,-10.55698,2.11264,9.678238,41,42,-0.1804297,1.67126,11.80605,0.02117831,106.4936,0.4733049,0.9280146,0.1335026,-0.9839877,2.015201,-31.82391,-28.7472,8.650032,-25.25946,40.78431,0.99,1144,19,20,0,21.96078,21.96078,0.5254015,14.43611,0.02,1.910095,218.0746,344.2,3.95994,5.372306,207,83,4619,0.97,1.938824,1.769531,1.926136,-0.00390625,0,0,0,0,0,0,0,0,0,0,0,0,14.84,0,0,0,0,0,0,0,0,0,32,31,0,0,0,0,0,0,0,0,0,0,0,0,0,0,0,0,0,0,0,0,0,0,0,0,0,0,0,0,0,0,0,0,0,0,0,0,0,0,0,0,0,0,0,0,0,0,0,0,0,0,0,0,0,0,0,13.1,0.1407126,0,28.11295,0.09711497,0.002080384,8.109053,0.4404042,1,5.40452
31.002,9.941939,0.6335909,30.15249,2.240906,-6.666702,3.461044,41,42,-0.1804297,1.67126,11.80605,0.02117831,106.4936,0.4733049,-0.2315855,-0.09511225,-0.612687,-3.630385,-35.28969,-31.88104,4.65868,-20.84166,40.78431,0.99,1144,19,20,0,21.96078,21.96078,0.5254015,14.43611,0.02,1.910095,218.0746,344.3,3.95994,5.372306,207,83,4619,0.97,1.938824,1.769531,1.926136,-0.00390625,0,0,0,0,0,0,0,0,0,0,0,0,14.84,0,0,0,0,0,0,0,0,0,32,31,0,0,0,0,0,0,0,0,0,0,0,0,0,0,0,0,0,0,0,0,0,0,0,0,0,0,0,0,0,0,0,0,0,0,0,0,0,0,0,0,0,0,0,0,0,0,0,0,0,0,0,0,0,0,0,13.1,0.1407126,0,28.11295,0.09711497,0.002080384,8.109053,0.4404042,1,5.40452
32.003,9.941939,0.6335909,30.15249,-10.44638,-14.05226,16.56021,41,42,-0.1804297,1.67126,11.80605,0.02117831,106.4936,0.4733049,-0.8671848,-0.4591361,-0.4314955,-3.602841,-36.5493,-35.0697,-0.6270142,-15.1206,40.78431,0.99,1144,19,20,0,21.96078,21.96078,0.5254015,14.43611,0.02,1.910095,218.0746,344.2,3.95994,5.372306,207,83,4619,0.97,1.938824,1.769531,1.926136,-0.00390625,0,0,0,0,0,0,0,0,0,0,0,0,14.84,0,0,0,0,0,0,0,0,0,32,31,0,0,0,0,0,0,0,0,0,0,0,0,0,0,0,0,0,0,0,0,0,0,0,0,0,0,0,0,0,0,0,0,0,0,0,0,0,0,0,0,0,0,0,0,0,0,0,0,0,0,0,0,0,0,0,13.1,0.1407126,0,28.11295,0.09711497,0.002080384,8.109053,0.4404042,1,5.40452
33.003,9.941939,0.6335909,30.15249,-15.43172,5.810028,18.38538,41,42,-0.1804297,1.67126,11.80605,0.02117831,106.4936,0.4733049,-0.9868598,-1.06086,0.3466584,-5.163279,-36.11206,-34.26871,1.659077,-19.87195,40.78431,0.99,1144,19,20,0,21.96078,21.96078,0.5254015,14.43611,0.02,1.910095,218.0746,344.2,3.95994,5.372306,207,83,4619,0.97,1.938824,1.769531,1.926136,-0.00390625,0,0,0,0,0,0,0,0,0,0,0,0,14.84,0,0,0,0,0,0,0,0,0,32,31,0,0,0,0,0,0,0,0,0,0,0,0,0,0,0,0,0,0,0,0,0,0,0,0,0,0,0,0,0,0,0,0,0,0,0,0,0,0,0,0,0,0,0,0,0,0,0,0,0,0,0,0,0,0,0,13.1,0.1407126,0,28.11295,0.09711497,0.002080384,8.109053,0.4404042,1,5.40452
34.003,9.941939,0.6335909,30.15249,48.45168,73.25166,2.484375,41,42,-0.1804297,1.67126,11.80605,0.02117831,106.4936,0.4733049,0.8980708,-1.281771,1.198779,11.04104,-43.44901,-40.57092,8.310623,-8.949402,40.78431,0.99,1144,19,20,0,21.96078,21.96078,0.5254015,14.43611,0.02,1.910095,218.0746,344.2,3.95994,5.372306,207,83,4619,0.97,1.938824,1.769531,1.926136,-0.00390625,0,0,0,0,0,0,0,0,0,0,0,0,14.84,0,0,0,0,0,0,0,0,0,32,31,0,0,0,0,0,0,0,0,0,0,0,0,0,0,0,0,0,0,0,0,0,0,0,0,0,0,0,0,0,0,0,0,0,0,0,0,0,0,0,0,0,0,0,0,0,0,0,0,0,0,0,0,0,0,0,13.1,0.1407126,0,28.11295,0.09711497,0.002080384,8.109053,0.4404042,1,5.40452
35.003,9.941939,0.6335909,30.15249,-2.154617,10.1096,4.807877,41,42,-0.1804297,1.67126,11.80605,0.02117831,106.4936,0.4733049,-1.444914,-0.05888427,1.044434,7.37382,-35.63712,-33.5485,8.008688,-17.54119,40.78431,0.99,1144,19,20,0,21.96078,21.96078,0.5254015,14.43611,0.02,1.910095,218.0746,344.2,3.95994,5.372306,207,83,4619,0.97,1.938824,1.769531,1.926136,-0.00390625,0,0,0,0,0,0,0,0,0,0,0,0,14.84,0,0,0,0,0,0,0,0,0,32,31,0,0,0,0,0,0,0,0,0,0,0,0,0,0,0,0,0,0,0,0,0,0,0,0,0,0,0,0,0,0,0,0,0,0,0,0,0,0,0,0,0,0,0,0,0,0,0,0,0,0,0,0,0,0,0,13.1,0.1407126,0,28.11295,0.09711497,0.002080384,8.109053,0.4404042,1,5.40452
36.003,9.941939,0.6335909,30.15249,-6.51297,-0.2036591,1.498199,41,42,-0.1804297,1.67126,11.80605,0.02117831,106.4936,0.4733049,0.1720726,0.7431588,-0.8703666,7.264391,-37.27832,-32.52238,7.942219,-17.04498,40.78431,0.99,1144,19,20,0,21.96078,21.96078,0.5254015,14.43611,0.02,1.910095,218.0746,344.2,3.95994,5.372306,207,83,4619,0.97,1.938824,1.769531,1.926136,-0.00390625,0,0,0,0,0,0,0,0,0,0,0,0,14.84,0,0,0,0,0,0,0,0,0,32,31,0,0,0,0,0,0,0,0,0,0,0,0,0,0,0,0,0,0,0,0,0,0,0,0,0,0,0,0,0,0,0,0,0,0,0,0,0,0,0,0,0,0,0,0,0,0,0,0,0,0,0,0,0,0,0,13.1,0.1407126,0,28.11295,0.09711497,0.002080384,8.109053,0.4404042,1,5.40452
37.003,13.04879,0,0,1.044235,4.9021,-6.277832,45,47,0.02723276,1.103562,13.04879,0,899.1985,0,0.02629329,0.2484078,-1.149737,-3.649784,-33.20277,-24.25644,16.23979,-43.90477,97.64706,1.5,1732.5,30,20,0,47.05882,47.05882,0,33.46379,0.5,0,0,346.3,33.43649,5.372306,237,83,4619,0.97,2.6718,2.363281,3.5014,-0.00390625,0,0,0,0,0,0,0,0,0,0,0,0,13.32,0,0,0,0,0,0,0,0,0,41,33,0,0,0,0,0,0,0,0,0,0,0,0,0,0,0,0,0,0,0,0,0,0,0,0,0,0,0,0,0,0,0,0,0,0,0,0,0,0,0,0,0,0,0,0,0,0,0,0,0,0,0,0,0,0,0,12.9,0.07020031,0,38.7411,0,0,0,0,0,0
38.003,13.04879,0,0,2.065552,-1.602753,-4.056564,45,47,0.02723276,1.103562,13.04879,0,899.1985,0,-0.11476,0.339879,-0.0073483,-4.766259,-34.41599,-25.29913,14.90814,-43.03532,97.64706,1.5,1732.5,30,20,0,47.05882,47.05882,0,33.46379,0.5,0,0,346.3,33.43649,5.372306,237,83,4619,0.97,2.6718,2.363281,3.5014,-0.00390625,0,0,0,0,0,0,0,0,0,0,0,0,13.32,0,0,0,0,0,0,0,0,0,41,33,0,0,0,0,0,0,0,0,0,0,0,0,0,0,0,0,0,0,0,0,0,0,0,0,0,0,0,0,0,0,0,0,0,0,0,0,0,0,0,0,0,0,0,0,0,0,0,0,0,0,0,0,0,0,0,12.9,0.07020031,0,38.7411,0,0,0,0,0,0
39.003,19.88388,3.984116,30.16193,5.705994,-7.496658,-2.910248,45,47,0.506905,8.982032,19.88388,0.009442595,334.824,2.976213,-0.1177431,-0.06840179,1.217043,-6.170208,-35.95376,-26.73915,13.13261,-40.4877,57.64706,1.17,1338.5,30,20,0,32.94118,32.94118,0.6461696,19.50057,0.2,12.01097,333.5249,346.3,12.45035,5.37326,237,83,4619,0.97,1.562576,1.308594,1.494256,-0.00390625,0,0,0,0,0,0,0,0,0,0,0,0,13.32,0,0,0,0,0,0,0,0,0,41,33,0,0,0,0,0,0,0,0,0,0,0,0,0,0,0,0,0,0,0,0,0,0,0,0,0,0,0,0,0,0,0,0,0,0,0,0,0,0,0,0,0,0,0,0,0,0,0,0,0,0,0,0,0,0,0,12.9,0.1043968,0,22.65735,0.02831151,0.0009275633,12.40205,0.08627905,0,0
40.003,21.12662,2.352068,30.1655,-12.16078,0.3314514,14.88948,45,47,0.6165658,4.970302,21.12662,0.01300816,186.0397,1.757042,-0.113485,-0.09692568,0.08655825,-3.553516,-35.29512,-28.80452,12.6372,-39.85516,74.5098,1.1,1428,30,20,0,38.82353,38.82353,0.8363757,19.55978,0.13,7.090812,273.996,346.3,6.917843,5.373401,237,83,4619,0.97,1.313696,0.8710938,1.30784,-0.00390625,0,0,0,0,0,0,0,0,0,0,0,0,13.32,0,0,0,0,0,0,0,0,0,41,33,0,0,0,0,0,0,0,0,0,0,0,0,0,0,0,0,0,0,0,0,0,0,0,0,0,0,0,0,0,0,0,0,0,0,0,0,0,0,0,0,0,0,0,0,0,0,0,0,0,0,0,0,0,0,0,12.9,0.1052826,0,19.04859,0.04747571,0.001277815,10.18848,0.1163614,0,0
41.003,21.12662,2.352068,30.1655,37.95934,10.01373,-23.14078,45,47,0.6165658,4.970302,21.12662,0.01300816,186.0397,1.757042,3.679434,-0.32032,-0.04228092,23.8097,-45.38326,-34.0248,26.71296,-23.21861,74.5098,1.1,1428,30,20,0,38.82353,38.82353,0.8363757,19.55978,0.13,7.090812,273.996,346.3,6.917843,5.373401,237,83,4619,0.97,1.313696,0.8710938,1.30784,-0.00390625,0,0,0,0,0,0,0,0,0,0,0,0,13.32,0,0,0,0,0,0,0,0,0,41,33,0,0,0,0,0,0,0,0,0,0,0,0,0,0,0,0,0,0,0,0,0,0,0,0,0,0,0,0,0,0,0,0,0,0,0,0,0,0,0,0,0,0,0,0,0,0,0,0,0,0,0,0,0,0,0,12.9,0.1052826,0,19.04859,0.04747571,0.001277815,10.18848,0.1163614,0,0
42.003,22.99073,4.222103,30.17126,-76.43806,-111.7325,-67.08545,45,47,0.3649742,8.267747,22.99073,0.01877248,306.8751,3.153994,-2.677976,-5.225613,2.927225,8.468801,-73.69548,-28.46936,33.94049,-21.75349,73.72549,1.22,1541,30,20,0,38.43137,38.82353,1.088765,23.41022,0.25,12.72843,283.3514,346.2,11.41108,5.373945,237,83,4619,0.97,1.455704,1.15625,1.391776,-0.00390625,0,0,0,0,0,0,0,0,0,0,0,0,13.32,0,0,0,0,0,0,0,0,0,41,33,0,0,0,0,0,0,0,0,0,0,0,0,0,0,0,0,0,0,0,0,0,0,0,0,0,0,0,0,0,0,0,0,0,0,0,0,0,0,0,0,0,0,0,0,0,0,0,0,0,0,0,0,0,0,0,12.9,0.1979368,0,21.10771,0.06625157,0.001844055,10.53636,0.1464296,0,0
43.003,22.99073,4.222103,30.17126,70.43152,80.57904,-29.69299,45,47,0.3649742,8.267747,22.99073,0.01877248,306.8751,3.153994,-1.782408,-0.3004108,1.642794,1.388906,-55.29828,-37.57476,23.2228,-27.63727,73.72549,1.22,1541,30,20,0,38.43137,38.82353,1.088765,23.41022,0.25,12.72843,283.3514,346.2,11.41108,5.373945,237,83,4619,0.97,1.455704,1.15625,1.391776,-0.00390625,0,0,0,0,0,0,0,0,0,0,0,0,13.32,0,0,0,0,0,0,0,0,0,41,33,0,0,0,0,0,0,0,0,0,0,0,0,0,0,0,0,0,0,0,0,0,0,0,0,0,0,0,0,0,0,0,0,0,0,0,0,0,0,0,0,0,0,0,0,0,0,0,0,0,0,0,0,0,0,0,12.9,0.1979368,0,21.10771,0.06625157,0.001844055,10.53636,0.1464296,0,0
44.003,24.85485,4.289869,30.17697,8.116409,-9.161194,-6.496124,45,47,0.4636965,11.17883,24.85485,0.02447416,288.4156,3.204617,-0.8834131,0.8520399,-0.6332638,-4.097848,-38.11395,-30.67302,14.00754,-37.20264,90.58823,1.26,1158,21,20,0,43.52941,43.92157,1.036026,18.16863,0.29,12.93273,284.9124,346.2,10.72466,5.374454,237,83,4619,0.97,1.272216,0.7773438,1.213168,-0.00390625,0,0,0,0,0,0,0,0,0,0,0,0,13.32,0,0,0,0,0,0,0,0,0,41,33,0,0,0,0,0,0,0,0,0,0,0,0,0,0,0,0,0,0,0,0,0,0,0,0,0,0,0,0,0,0,0,0,0,0,0,0,0,0,0,0,0,0,0,0,0,0,0,0,0,0,0,0,0,0,0,12.8,0.2141363,0,18.44713,0.08590062,0.002404141,10.5944,0.1814301,0,0
45.003,24.85485,4.289869,30.17697,4.220245,13.0332,-7.896759,45,47,0.4636965,11.17883,24.85485,0.02447416,288.4156,3.204617,0.98217,0.226244,-1.630239,-2.674491,-38.67295,-31.94971,14.91349,-35.83273,90.58823,1.26,1158,21,20,0,43.52941,43.92157,1.036026,18.16863,0.29,12.93273,284.9124,346.2,10.72466,5.374454,237,83,4619,0.97,1.272216,0.7773438,1.213168,-0.00390625,0,0,0,0,0,0,0,0,0,0,0,0,13.32,0,0,0,0,0,0,0,0,0,41,33,0,0,0,0,0,0,0,0,0,0,0,0,0,0,0,0,0,0,0,0,0,0,0,0,0,0,0,0,0,0,0,0,0,0,0,0,0,0,0,0,0,0,0,0,0,0,0,0,0,0,0,0,0,0,0,12.8,0.2141363,0,18.44713,0.08590062,0.002404141,10.5944,0.1814301,0,0
46.003,27.34033,5.013873,30.1848,-6.034729,-3.203018,-5.317657,45,47,0.5000091,12.10872,27.34033,0.03230508,306.4469,3.745462,0.441107,0.4679551,-0.4500214,-4.856872,-38.98182,-30.28004,15.31614,-37.59004,84.31373,1.25,1249.5,21,20,0,38.43137,38.82353,1.272481,20.0437,0.28,15.11539,289.5173,346.2,11.39516,5.375188,237,83,4619,0.97,1.255136,0.7382813,1.207312,-0.00390625,0,0,0,0,0,0,0,0,0,0,0,0,13.32,0,0,0,0,0,0,0,0,0,41,33,0,0,0,0,0,0,0,0,0,0,0,0,0,0,0,0,0,0,0,0,0,0,0,0,0,0,0,0,0,0,0,0,0,0,0,0,0,0,0,0,0,0,0,0,0,0,0,0,0,0,0,0,0,0,0,12.8,0.2513803,0,18.19947,0.1115825,0.003173387,10.76563,0.2105241,0,0
47.003,27.34033,5.013873,30.1848,9.263428,8.922165,-5.58931,45,47,0.5000091,12.10872,27.34033,0.03230508,306.4469,3.745462,0.26014,0.03954984,-0.3702359,-7.511877,-38.52534,-28.99894,13.16086,-37.63715,84.31373,1.25,1249.5,21,20,0,38.43137,38.82353,1.272481,20.0437,0.28,15.11539,289.5173,346.2,11.39516,5.375188,237,83,4619,0.97,1.255136,0.7382813,1.207312,-0.00390625,0,0,0,0,0,0,0,0,0,0,0,0,13.32,0,0,0,0,0,0,0,0,0,41,33,0,0,0,0,0,0,0,0,0,0,0,0,0,0,0,0,0,0,0,0,0,0,0,0,0,0,0,0,0,0,0,0,0,0,0,0,0,0,0,0,0,0,0,0,0,0,0,0,0,0,0,0,0,0,0,12.8,0.2513803,0,18.19947,0.1115825,0.003173387,10.76563,0.2105241,0,0
48.003,28.58307,4.049644,30.19007,-2.959778,5.233276,-0.9851837,45,47,0.4240081,9.317719,28.58307,0.03757304,236.752,3.025164,0.2042493,-0.1449274,0.06651875,-7.441555,-39.01259,-29.19915,13.73725,-37.6953,93.72549,1.21,1311.5,21,20,0,40,40.39216,1.023389,20.36505,0.24,12.20852,280.7736,346.2,8.803568,5.375554,237,83,4619,0.97,1.276608,0.7851563,1.275632,-0.00390625,0,0,0,0,0,0,0,0,0,0,0,0,13.32,0,0,0,0,0,0,0,0,0,41,33,0,0,0,0,0,0,0,0,0,0,0,0,0,0,0,0,0,0,0,0,0,0,0,0,0,0,0,0,0,0,0,0,0,0,0,0,0,0,0,0,0,0,0,0,0,0,0,0,0,0,0,0,0,0,0,12.8,0.2702147,0,18.51082,0.1338197,0.003690868,10.4405,0.2402655,0,0
49.003,28.58307,4.049644,30.19007,-12.82298,7.658844,0.05686951,45,47,0.4240081,9.317719,28.58307,0.03757304,236.752,3.025164,-0.972572,0.1401879,0.3318326,-8.675948,-39.33635,-29.33994,11.38512,-37.7103,93.72549,1.21,1311.5,21,20,0,40,40.39216,1.023389,20.36505,0.24,12.20852,280.7736,346.2,8.803568,5.375554,237,83,4619,0.97,1.276608,0.7851563,1.275632,-0.00390625,0,0,0,0,0,0,0,0,0,0,0,0,13.32,0,0,0,0,0,0,0,0,0,41,33,0,0,0,0,0,0,0,0,0,0,0,0,0,0,0,0,0,0,0,0,0,0,0,0,0,0,0,0,0,0,0,0,0,0,0,0,0,0,0,0,0,0,0,0,0,0,0,0,0,0,0,0,0,0,0,12.8,0.2702147,0,18.51082,0.1338197,0.003690868,10.4405,0.2402655,0,0
50.003,30.44719,4.013396,30.19549,-0.1909943,3.934235,11.85507,45,47,0.3912551,8.891929,30.44719,0.0429934,220.2676,2.998087,0.5578063,0.2547562,-0.1435703,-8.195224,-36.98439,-28.18974,10.6581,-38.07799,72.54902,1.18,1362,21,20,0,29.41176,29.80392,0.8692492,20.62485,0.21,12.09924,271.5894,346.1,8.190598,5.375888,237,83,4619,0.97,1.58112,1.332031,1.572824,-0.00390625,0,0,0,0,0,0,0,0,0,0,0,0,13.32,0,0,0,0,0,0,0,0,0,41,33,0,0,0,0,0,0,0,0,0,0,0,0,0,0,0,0,0,0,0,0,0,0,0,0,0,0,0,0,0,0,0,0,0,0,0,0,0,0,0,0,0,0,0,0,0,0,0,0,0,0,0,0,0,0,0,12.8,0.3165427,0,22.92624,0.1583029,0.00422332,10.09899,0.2697471,0,0
51.003,30.44719,4.013396,30.19549,-9.610535,15.72208,1.576157,45,47,0.3912551,8.891929,30.44719,0.0429934,220.2676,2.998087,-0.6566741,0.005401306,1.350985,-10.26394,-39.42333,-27.60406,11.85455,-37.31361,72.54902,1.18,1362,21,20,0,29.41176,29.80392,0.8692492,20.62485,0.21,12.09924,271.5894,346,8.190598,5.375888,237,83,4619,0.97,1.58112,1.332031,1.572824,-0.00390625,0,0,0,0,0,0,0,0,0,0,0,0,13.32,0,0,0,0,0,0,0,0,0,41,33,0,0,0,0,0,0,0,0,0,0,0,0,0,0,0,0,0,0,0,0,0,0,0,0,0,0,0,0,0,0,0,0,0,0,0,0,0,0,0,0,0,0,0,0,0,0,0,0,0,0,0,0,0,0,0,12.8,0.3165427,0,22.92624,0.1583029,0.00422332,10.09899,0.2697471,0,0
52.003,31.06856,2.847543,30.19925,-13.62901,0.6194,5.6922,45,47,0.3100804,6.210866,31.06856,0.04676004,153.1563,2.127171,0.4049477,1.219037,0.3294121,-10.18567,-34.69675,-26.55897,9.493725,-39.55508,82.74509,1.08,1383.5,18,20,0,38.82353,38.43137,0.76722,19.17497,0.11,8.584527,255.666,345.9,5.695082,5.375926,237,83,4619,0.97,1.161928,0.5,1.427888,-0.00390625,0,0,0,0,0,0,0,0,0,0,0,0,13.32,0,0,0,0,0,0,0,0,0,41,33,0,0,0,0,0,0,0,0,0,0,0,0,0,0,0,0,0,0,0,0,0,0,0,0,0,0,0,0,0,0,0,0,0,0,0,0,0,0,0,0,0,0,0,0,0,0,0,0,0,0,0,0,0,0,0,12.8,0.3683167,0,16.84796,0.182895,0.004593324,9.506881,0.3054452,0,0
53.003,31.06856,2.847543,30.19925,13.57751,2.484543,4.851776,45,47,0.3100804,6.210866,31.06856,0.04676004,153.1563,2.127171,-0.6347145,-1.619492,-1.528542,-9.606258,-36.03946,-25.35357,11.80128,-40.25276,82.74509,1.08,1383.5,18,20,0,38.82353,38.43137,0.76722,19.17497,0.11,8.584527,255.666,345.9,5.695082,5.375926,237,83,4619,0.97,1.161928,0.5,1.427888,-0.00390625,0,0,0,0,0,0,0,0,0,0,0,0,13.32,0,0,0,0,0,0,0,0,0,41,33,0,0,0,0,0,0,0,0,0,0,0,0,0,0,0,0,0,0,0,0,0,0,0,0,0,0,0,0,0,0,0,0,0,0,0,0,0,0,0,0,0,0,0,0,0,0,0,0,0,0,0,0,0,0,0,12.8,0.3683167,0,16.84796,0.182895,0.004593324,9.506881,0.3054452,0,0
54.003,32.3113,3.361567,30.2046,24.8315,9.126541,-6.089371,45,47,0.2088642,8.996761,32.3113,0.05210591,173.8493,2.511157,-0.3637468,-0.7723677,-0.2979679,-9.491044,-36.47956,-26.98681,11.01018,-37.60095,85.4902,1.13,1127.5,18,20,0,35.68628,35.29412,0.7737961,16.51881,0.16,10.13416,243.8743,345.8,6.464547,5.376086,237,83,4619,0.97,1.304912,0.8476563,1.265384,-0.00390625,0,0,0,0,0,0,0,0,0,0,0,0,13.32,0,0,0,0,0,0,0,0,0,41,33,0,0,0,0,0,0,0,0,0,0,0,0,0,0,0,0,0,0,0,0,0,0,0,0,0,0,0,0,0,0,0,0,0,0,0,0,0,0,0,0,0,0,0,0,0,0,0,0,0,0,0,0,0,0,0,12.8,0.3944015,0,18.92122,0.2136589,0.005118459,9.068409,0.3348292,0,0
55.003,32.3113,3.361567,30.2046,-4.580978,-7.684967,9.824875,45,47,0.2088642,8.996761,32.3113,0.05210591,173.8493,2.511157,-0.491996,0.7776232,-0.8795884,-8.350468,-25.21412,-29.64483,0.07669449,-33.98964,85.4902,1.13,1127.5,18,20,0,35.68628,35.29412,0.7737961,16.51881,0.16,10.13416,243.8743,345.8,6.464547,5.376086,237,83,4619,0.97,1.304912,0.8476563,1.265384,-0.00390625,0,0,0,0,0,0,0,0,0,0,0,0,13.32,0,0,0,0,0,0,0,0,0,41,33,0,0,0,0,0,0,0,0,0,0,0,0,0,0,0,0,0,0,0,0,0,0,0,0,0,0,0,0,0,0,0,0,0,0,0,0,0,0,0,0,0,0,0,0,0,0,0,0,0,0,0,0,0,0,0,12.8,0.3944015,0,18.92122,0.2136589,0.005118459,9.068409,0.3348292,0,0
56.003,32.93267,3.062723,30.20864,-43.33142,-0.8417205,24.15074,45,47,0.20897,8.229795,32.93267,0.05615339,155.4055,2.287915,-1.089092,0.04264425,-0.001953572,-6.448818,-32.43402,-33.36883,5.498058,-32.76273,67.84314,1.09,1123,18,20,0,27.84314,28.23529,0.8373,15.87048,0.12,9.233232,234.2736,345.7,5.778718,5.376137,256,83,4619,0.97,1.518656,1.242188,1.502552,-0.00390625,0,0,0,0,0,0,0,0,0,0,0,0,12.8,0,0,0,0,0,0,0,0,0,42,35,0,0,0,0,0,0,0,0,0,0,0,0,0,0,0,0,0,0,0,0,0,0,0,0,0,0,0,0,0,0,0,0,0,0,0,0,0,0,0,0,0,0,0,0,0,0,0,0,0,0,0,0,0,0,0,12.8,0.4046642,0,22.02051,0.2396915,0.00551605,8.711411,0.3722678,0,0
57.003,32.93267,3.062723,30.20864,0.043396,21.83795,-1.978714,45,47,0.20897,8.229795,32.93267,0.05615339,155.4055,2.287915,1.599375,1.10759,2.238874,-4.011389,-39.63843,-37.16128,10.77022,-32.04968,67.84314,1.09,1123,18,20,0,27.84314,28.23529,0.8373,15.87048,0.12,9.233232,234.2736,345.7,5.778718,5.376137,256,83,4619,0.97,1.518656,1.242188,1.502552,-0.00390625,0,0,0,0,0,0,0,0,0,0,0,0,12.8,0,0,0,0,0,0,0,0,0,42,35,0,0,0,0,0,0,0,0,0,0,0,0,0,0,0,0,0,0,0,0,0,0,0,0,0,0,0,0,0,0,0,0,0,0,0,0,0,0,0,0,0,0,0,0,0,0,0,0,0,0,0,0,0,0,0,12.8,0.4046642,0,22.02051,0.2396915,0.00551605,8.711411,0.3722678,0,0
58.003,32.93267,2.327253,30.21255,16.33868,1.712982,-13.19565,45,47,0.078546,6.245182,32.93267,0.06006362,118.0871,1.738504,0.01030093,0.3713103,0.01063907,-6.134608,-36.73193,-35.12576,8.810551,-34.01053,80.39216,1.06,1124.5,18,20,0,31.76471,31.76471,0.8049411,15.45429,0.09,7.016,220.1724,345.7,4.391039,5.37598,256,83,4619,0.97,1.357128,0.9570313,1.345416,-0.00390625,0,0,0,0,0,0,0,0,0,0,0,0,12.8,0,0,0,0,0,0,0,0,0,42,35,0,0,0,0,0,0,0,0,0,0,0,0,0,0,0,0,0,0,0,0,0,0,0,0,0,0,0,0,0,0,0,0,0,0,0,0,0,0,0,0,0,0,0,0,0,0,0,0,0,0,0,0,0,0,0,12.8,0.3087297,0,19.67836,0.2728026,0.005900159,8.18706,0.4013275,0,0
59.003,32.93267,2.327253,30.21255,-0.3412781,-5.068619,3.041595,45,47,0.078546,6.245182,32.93267,0.06006362,118.0871,1.738504,-0.2083147,-0.3150386,0.2521856,-8.875088,-35.60993,-32.06075,6.9601,-34.27725,80.39216,1.06,1124.5,18,20,0,31.76471,31.76471,0.8049411,15.45429,0.09,7.016,220.1724,345.6,4.391039,5.37598,256,83,4619,0.97,1.357128,0.9570313,1.345416,-0.00390625,0,0,0,0,0,0,0,0,0,0,0,0,12.8,0,0,0,0,0,0,0,0,0,42,35,0,0,0,0,0,0,0,0,0,0,0,0,0,0,0,0,0,0,0,0,0,0,0,0,0,0,0,0,0,0,0,0,0,0,0,0,0,0,0,0,0,0,0,0,0,0,0,0,0,0,0,0,0,0,0,12.8,0.3087297,0,19.67836,0.2728026,0.005900159,8.18706,0.4013275,0,0
60.003,33.55404,2.835377,30.21624,10.0937,0.9906769,-2.820526,45,47,0.07938714,7.459476,33.55404,0.06374643,141.2055,2.118082,0.2274086,-0.7014537,0.2615721,-8.74718,-35.90446,-32.6209,7.388784,-34.39917,74.11765,1.07,1147,19,20,0,31.37255,31.37255,0.8265018,15.91223,0.1,8.547848,213.1664,345.5,5.250693,5.375961,256,83,4619,0.97,1.4152,1.0625,1.384456,-0.00390625,0,0,0,0,0,0,0,0,0,0,0,0,12.8,0,0,0,0,0,0,0,0,0,42,35,0,0,0,0,0,0,0,0,0,0,0,0,0,0,0,0,0,0,0,0,0,0,0,0,0,0,0,0,0,0,0,0,0,0,0,0,0,0,0,0,0,0,0,0,0,0,0,0,0,0,0,0,0,0,0,12.8,0.2972284,0,20.5204,0.2990453,0.006261928,7.926544,0.4369787,0,0
61.003,33.55404,2.627095,30.22041,-1.582504,-2.23201,3.491669,45,47,0.07938714,6.878533,33.55404,0.06792194,130.8328,1.962492,0.1571153,0.07111153,0.3424101,-8.058041,-36.0685,-32.66912,6.787138,-34.37756,71.76471,1.07,1152.5,19,20,0,31.37255,31.37255,0.8171204,15.9338,0.1,7.919939,205.2143,345.5,4.864987,5.375882,256,83,4619,0.97,1.423496,1.082031,1.410808,-0.00390625,0,0,0,0,0,0,0,0,0,0,0,0,12.8,0,0,0,0,0,0,0,0,0,42,35,0,0,0,0,0,0,0,0,0,0,0,0,0,0,0,0,0,0,0,0,0,0,0,0,0,0,0,0,0,0,0,0,0,0,0,0,0,0,0,0,0,0,0,0,0,0,0,0,0,0,0,0,0,0,0,12.8,0.2516123,0,20.64069,0.3309806,0.006672097,7.630845,0.4664648,0,0
62.003,33.55404,2.627095,30.22041,6.207245,2.940903,-7.423477,45,47,0.07938714,6.878533,33.55404,0.06792194,130.8328,1.962492,0.147286,0.1080662,0.9582233,-8.453876,-35.73117,-32.94051,6.791037,-33.97606,71.76471,1.07,1152.5,19,20,0,31.37255,31.37255,0.8171204,15.9338,0.1,7.919939,205.2143,345.4,4.864987,5.375882,256,83,4619,0.97,1.423496,1.082031,1.410808,-0.00390625,0,0,0,0,0,0,0,0,0,0,0,0,12.8,0,0,0,0,0,0,0,0,0,42,35,0,0,0,0,0,0,0,0,0,0,0,0,0,0,0,0,0,0,0,0,0,0,0,0,0,0,0,0,0,0,0,0,0,0,0,0,0,0,0,0,0,0,0,0,0,0,0,0,0,0,0,0,0,0,0,12.8,0.2516123,0,20.64069,0.3309806,0.006672097,7.630845,0.4664648,0,0
63.003,34.17542,2.543695,30.22379,-96.88432,-109.6254,24.26035,45,47,0.07862292,6.640002,34.17542,0.07130055,124.3761,1.900191,1.039143,-0.7283146,0.9863295,-2.391978,-44.39517,-37.12591,10.29884,-28.99121,66.66666,1.07,1156,19,20,0,29.01961,28.62745,0.8132209,15.98219,0.1,7.668512,199.1807,345.4,4.624897,5.375789,256,83,4619,0.97,1.582584,1.347656,1.695312,-0.00390625,0,0,0,0,0,0,0,0,0,0,0,0,12.8,0,0,0,0,0,0,0,0,0,42,35,0,0,0,0,0,0,0,0,0,0,0,0,0,0,0,0,0,0,0,0,0,0,0,0,0,0,0,0,0,0,0,0,0,0,0,0,0,0,0,0,0,0,0,0,0,0,0,0,0,0,0,0,0,0,0,12.8,0.2202137,0,22.94747,0.3579691,0.007003983,7.406489,0.4965249,0,0
64.003,34.17542,2.543695,30.22379,4.756088,-8.41716,-0.344574,45,47,0.07862292,6.640002,34.17542,0.07130055,124.3761,1.900191,-1.509722,-0.6415865,-0.1561169,-5.841961,-36.58668,-34.16399,4.63905,-29.30411,66.66666,1.07,1156,19,20,0,29.01961,28.62745,0.8132209,15.98219,0.1,7.668512,199.1807,345.4,4.624897,5.375789,256,83,4619,0.97,1.582584,1.347656,1.695312,-0.00390625,0,0,0,0,0,0,0,0,0,0,0,0,12.8,0,0,0,0,0,0,0,0,0,42,35,0,0,0,0,0,0,0,0,0,0,0,0,0,0,0,0,0,0,0,0,0,0,0,0,0,0,0,0,0,0,0,0,0,0,0,0,0,0,0,0,0,0,0,0,0,0,0,0,0,0,0,0,0,0,0,12.8,0.2202137,0,22.94747,0.3579691,0.007003983,7.406489,0.4965249,0,0
65.003,34.17542,2.210796,30.22675,-18.80391,25.80096,116.6875,45,47,0.07862292,5.808696,34.17542,0.07425965,108.0987,1.651508,0.215543,-3.28095,0.5902364,10.58293,-54.90042,-41.60144,25.63632,-17.67458,47.84314,1.05,1148.5,19,20,0,24.70588,24.70588,0.7585381,15.58171,0.08,6.664917,192.6302,345.4,4.019626,5.375607,256,83,4619,0.97,1.831464,1.667969,1.808528,-0.00390625,0,0,0,0,0,0,0,0,0,0,0,0,12.8,0,0,0,0,0,0,0,0,0,42,35,0,0,0,0,0,0,0,0,0,0,0,0,0,0,0,0,0,0,0,0,0,0,0,0,0,0,0,0,0,0,0,0,0,0,0,0,0,0,0,0,0,0,0,0,0,0,0,0,0,0,0,0,0,0,0,12.8,0.1673351,0,26.55623,0.3855038,0.007294662,7.162908,0.5252727,0,0
66.003,34.17542,2.210796,30.22675,0.7236328,3.52504,7.158783,45,47,0.07862292,5.808696,34.17542,0.07425965,108.0987,1.651508,-0.3677205,0.254112,-0.7662886,-8.502933,-39.01411,-35.48188,6.859678,-31.67838,47.84314,1.05,1148.5,19,20,0,24.70588,24.70588,0.7585381,15.58171,0.08,6.664917,192.6302,345.4,4.019626,5.375607,256,83,4619,0.97,1.831464,1.667969,1.808528,-0.00390625,0,0,0,0,0,0,0,0,0,0,0,0,12.8,0,0,0,0,0,0,0,0,0,42,35,0,0,0,0,0,0,0,0,0,0,0,0,0,0,0,0,0,0,0,0,0,0,0,0,0,0,0,0,0,0,0,0,0,0,0,0,0,0,0,0,0,0,0,0,0,0,0,0,0,0,0,0,0,0,0,12.8,0.1673351,0,26.55623,0.3855038,0.007294662,7.162908,0.5252727,0,0
67.003,33.55404,1.58237,30.22882,1.574478,-1.737991,2.167374,45,47,-0.07973314,4.199607,34.17542,0.07632301,78.80412,1.182062,0.2941491,0.4069706,-0.4385053,-7.454451,-39.00271,-36.84061,7.840298,-30.01485,59.60784,1.05,1137,20,20,0,28.23529,28.23529,0.7614699,15.42568,0.08,4.770393,185.4154,345.5,2.930313,5.375303,256,83,4619,0.97,1.67872,1.476563,1.749968,-0.00390625,0,0,0,0,0,0,0,0,0,0,0,0,12.8,0,0,0,0,0,0,0,0,0,42,35,0,0,0,0,0,0,0,0,0,0,0,0,0,0,0,0,0,0,0,0,0,0,0,0,0,0,0,0,0,0,0,0,0,0,0,0,0,0,0,0,0,0,0,0,0,0,0,0,0,0,0,0,0,0,0,12.8,0.1194654,0,24.34144,0.4116326,0.007497349,6.894627,0.5606009,0,0
68.003,33.55404,1.58237,30.22882,2.874069,-2.804077,0.4078369,45,47,-0.07973314,4.199607,34.17542,0.07632301,78.80412,1.182062,-0.1965617,-0.4936039,-0.7753235,-8.857311,-38.29165,-35.74246,6.943039,-31.27612,59.60784,1.05,1137,20,20,0,28.23529,28.23529,0.7614699,15.42568,0.08,4.770393,185.4154,345.5,2.930313,5.375303,256,83,4619,0.97,1.67872,1.476563,1.749968,-0.00390625,0,0,0,0,0,0,0,0,0,0,0,0,12.8,0,0,0,0,0,0,0,0,0,42,35,0,0,0,0,0,0,0,0,0,0,0,0,0,0,0,0,0,0,0,0,0,0,0,0,0,0,0,0,0,0,0,0,0,0,0,0,0,0,0,0,0,0,0,0,0,0,0,0,0,0,0,0,0,0,0,12.8,0.1194654,0,24.34144,0.4116326,0.007497349,6.894627,0.5606009,0,0
69.003,33.55404,1.791777,30.23162,14.73639,0.557663,38.36746,45,47,-0.07973314,4.751192,34.17542,0.0791323,89.23284,1.338493,0.05793819,-1.84244,1.176268,-3.700139,-40.72977,-38.55173,11.31446,-30.2944,49.41177,1.05,1138,20,20,0,35.29412,35.68628,0.7014542,15.38659,0.08,5.401693,178.5945,345.5,3.318102,5.374994,256,83,4619,0.97,1.221952,0.6484375,1.264896,-0.00390625,0,0,0,0,0,0,0,0,0,0,0,0,12.8,0,0,0,0,0,0,0,0,0,42,35,0,0,0,0,0,0,0,0,0,0,0,0,0,0,0,0,0,0,0,0,0,0,0,0,0,0,0,0,0,0,0,0,0,0,0,0,0,0,0,0,0,0,0,0,0,0,0,0,0,0,0,0,0,0,0,12.8,0.07313743,0,17.7183,0.4430837,0.00777331,6.640993,0.5892968,0,0
70.003,33.55404,1.791777,30.23162,14.3533,19.59863,-13.15498,45,47,-0.07973314,4.751192,34.17542,0.0791323,89.23284,1.338493,0.4583606,1.229271,0.3959564,-4.6027,-40.48689,-36.6133,13.43441,-31.63922,49.41177,1.05,1138,20,20,0,35.29412,35.68628,0.7014542,15.38659,0.08,5.401693,178.5945,345.5,3.318102,5.374994,256,83,4619,0.97,1.221952,0.6484375,1.264896,-0.00390625,0,0,0,0,0,0,0,0,0,0,0,0,12.8,0,0,0,0,0,0,0,0,0,42,35,0,0,0,0,0,0,0,0,0,0,0,0,0,0,0,0,0,0,0,0,0,0,0,0,0,0,0,0,0,0,0,0,0,0,0,0,0,0,0,0,0,0,0,0,0,0,0,0,0,0,0,0,0,0,0,12.8,0.07313743,0,17.7183,0.4430837,0.00777331,6.640993,0.5892968,0,0
71.003,33.55404,1.791777,30.23162,18.18806,-3.985855,-7.281112,45,47,-0.07973314,4.751192,34.17542,0.0791323,89.23284,1.338493,0.1459607,0.6068591,2.136535,-7.241498,-40.03714,-36.0458,9.396996,-32.83643,49.41177,1.05,1138,20,20,0,35.29412,35.68628,0.7014542,15.38659,0.08,5.401693,178.5945,345.5,3.318102,5.374994,256,83,4619,0.97,1.221952,0.6484375,1.264896,-0.00390625,0,0,0,0,0,0,0,0,0,0,0,0,12.8,0,0,0,0,0,0,0,0,0,42,35,0,0,0,0,0,0,0,0,0,0,0,0,0,0,0,0,0,0,0,0,0,0,0,0,0,0,0,0,0,0,0,0,0,0,0,0,0,0,0,0,0,0,0,0,0,0,0,0,0,0,0,0,0,0,0,12.8,0.07313743,0,17.7183,0.4430837,0.00777331,6.640993,0.5892968,0,0
72.003,33.55404,1.791777,30.23162,4.140793,1.740112,-6.500396,45,47,-0.07973314,4.751192,34.17542,0.0791323,89.23284,1.338493,0.06953608,-0.1162408,-0.4200414,-6.040029,-38.98683,-35.83723,11.43826,-33.67001,49.41177,1.05,1138,20,20,0,35.29412,35.68628,0.7014542,15.38659,0.08,5.401693,178.5945,345.5,3.318102,5.374994,256,83,4619,0.97,1.221952,0.6484375,1.264896,-0.00390625,0,0,0,0,0,0,0,0,0,0,0,0,12.8,0,0,0,0,0,0,0,0,0,42,35,0,0,0,0,0,0,0,0,0,0,0,0,0,0,0,0,0,0,0,0,0,0,0,0,0,0,0,0,0,0,0,0,0,0,0,0,0,0,0,0,0,0,0,0,0,0,0,0,0,0,0,0,0,0,0,12.8,0.07313743,0,17.7183,0.4430837,0.00777331,6.640993,0.5892968,0,0
73.003,33.55404,1.791777,30.23162,-0.388916,-8.860199,-0.7695617,45,47,-0.07973314,4.751192,34.17542,0.0791323,89.23284,1.338493,-0.7098373,-0.3677468,0.8732925,-6.141044,-38.89748,-35.22721,10.42495,-33.17761,49.41177,1.05,1138,20,20,0,35.29412,35.68628,0.7014542,15.38659,0.08,5.401693,178.5945,345.6,3.318102,5.374994,256,83,4619,0.97,1.221952,0.6484375,1.264896,-0.00390625,0,0,0,0,0,0,0,0,0,0,0,0,12.8,0,0,0,0,0,0,0,0,0,42,35,0,0,0,0,0,0,0,0,0,0,0,0,0,0,0,0,0,0,0,0,0,0,0,0,0,0,0,0,0,0,0,0,0,0,0,0,0,0,0,0,0,0,0,0,0,0,0,0,0,0,0,0,0,0,0,12.8,0.07313743,0,17.7183,0.4430837,0.00777331,6.640993,0.5892968,0,0
74.003,33.55404,1.791777,30.23162,-6.710037,5.125259,-2.424606,45,47,-0.07973314,4.751192,34.17542,0.0791323,89.23284,1.338493,0.2817827,0.3607412,-0.8266842,-4.587278,-38.77303,-38.07431,11.78953,-33.22185,49.41177,1.05,1138,20,20,0,35.29412,35.68628,0.7014542,15.38659,0.08,5.401693,178.5945,345.5,3.318102,5.374994,256,83,4619,0.97,1.221952,0.6484375,1.264896,-0.00390625,0,0,0,0,0,0,0,0,0,0,0,0,12.8,0,0,0,0,0,0,0,0,0,42,35,0,0,0,0,0,0,0,0,0,0,0,0,0,0,0,0,0,0,0,0,0,0,0,0,0,0,0,0,0,0,0,0,0,0,0,0,0,0,0,0,0,0,0,0,0,0,0,0,0,0,0,0,0,0,0,12.8,0.07313743,0,17.7183,0.4430837,0.00777331,6.640993,0.5892968,0,0
75.003,33.55404,1.791777,30.23162,-1.902206,8.060379,2.930573,45,47,-0.07973314,4.751192,34.17542,0.0791323,89.23284,1.338493,-0.2090867,0.9413326,3.770301,-6.230769,-39.80319,-36.81466,11.16031,-33.79652,49.41177,1.05,1138,20,20,0,35.29412,35.68628,0.7014542,15.38659,0.08,5.401693,178.5945,345.6,3.318102,5.374994,256,83,4619,0.97,1.221952,0.6484375,1.264896,-0.00390625,0,0,0,0,0,0,0,0,0,0,0,0,12.8,0,0,0,0,0,0,0,0,0,42,35,0,0,0,0,0,0,0,0,0,0,0,0,0,0,0,0,0,0,0,0,0,0,0,0,0,0,0,0,0,0,0,0,0,0,0,0,0,0,0,0,0,0,0,0,0,0,0,0,0,0,0,0,0,0,0,12.8,0.07313743,0,17.7183,0.4430837,0.00777331,6.640993,0.5892968,0,0
76.003,33.55404,1.791777,30.23162,12.50174,21.61707,-12.63483,45,47,-0.07973314,4.751192,34.17542,0.0791323,89.23284,1.338493,-0.671167,1.204281,2.096807,-6.686442,-38.92212,-36.73346,9.828503,-32.62607,49.41177,1.05,1138,20,20,0,35.29412,35.68628,0.7014542,15.38659,0.08,5.401693,178.5945,345.6,3.318102,5.374994,256,83,4619,0.97,1.221952,0.6484375,1.264896,-0.00390625,0,0,0,0,0,0,0,0,0,0,0,0,12.8,0,0,0,0,0,0,0,0,0,42,35,0,0,0,0,0,0,0,0,0,0,0,0,0,0,0,0,0,0,0,0,0,0,0,0,0,0,0,0,0,0,0,0,0,0,0,0,0,0,0,0,0,0,0,0,0,0,0,0,0,0,0,0,0,0,0,12.8,0.07313743,0,17.7183,0.4430837,0.00777331,6.640993,0.5892968,0,0
77.003,33.55404,1.791777,30.23162,1.755737,-11.66118,-5.607635,45,47,-0.07973314,4.751192,34.17542,0.0791323,89.23284,1.338493,0.05699906,-1.18818,-0.8805203,-6.291526,-38.57227,-35.8534,10.5963,-34.11871,49.41177,1.05,1138,20,20,0,35.29412,35.68628,0.7014542,15.38659,0.08,5.401693,178.5945,345.6,3.318102,5.374994,256,83,4619,0.97,1.221952,0.6484375,1.264896,-0.00390625,0,0,0,0,0,0,0,0,0,0,0,0,12.8,0,0,0,0,0,0,0,0,0,42,35,0,0,0,0,0,0,0,0,0,0,0,0,0,0,0,0,0,0,0,0,0,0,0,0,0,0,0,0,0,0,0,0,0,0,0,0,0,0,0,0,0,0,0,0,0,0,0,0,0,0,0,0,0,0,0,12.8,0.07313743,0,17.7183,0.4430837,0.00777331,6.640993,0.5892968,0,0
78.003,33.55404,1.791777,30.23162,0.4319916,-2.138336,-10.549,45,47,-0.07973314,4.751192,34.17542,0.0791323,89.23284,1.338493,-0.2739011,-0.7553946,-0.50375,-5.882798,-37.90118,-35.96698,10.74593,-33.74147,49.41177,1.05,1138,20,20,0,35.29412,35.68628,0.7014542,15.38659,0.08,5.401693,178.5945,345.6,3.318102,5.374994,256,83,4619,0.97,1.221952,0.6484375,1.264896,-0.00390625,0,0,0,0,0,0,0,0,0,0,0,0,12.8,0,0,0,0,0,0,0,0,0,42,35,0,0,0,0,0,0,0,0,0,0,0,0,0,0,0,0,0,0,0,0,0,0,0,0,0,0,0,0,0,0,0,0,0,0,0,0,0,0,0,0,0,0,0,0,0,0,0,0,0,0,0,0,0,0,0,12.8,0.07313743,0,17.7183,0.4430837,0.00777331,6.640993,0.5892968,0,0
79.003,33.55404,1.791777,30.23162,0.9120483,3.269165,0.9263611,45,47,-0.07973314,4.751192,34.17542,0.0791323,89.23284,1.338493,0.1297986,0.06013559,-0.4488115,-5.842362,-39.07571,-35.83043,10.5905,-34.41714,49.41177,1.05,1138,20,20,0,35.29412,35.68628,0.7014542,15.38659,0.08,5.401693,178.5945,345.6,3.318102,5.374994,256,83,4619,0.97,1.221952,0.6484375,1.264896,-0.00390625,0,0,0,0,0,0,0,0,0,0,0,0,12.8,0,0,0,0,0,0,0,0,0,42,35,0,0,0,0,0,0,0,0,0,0,0,0,0,0,0,0,0,0,0,0,0,0,0,0,0,0,0,0,0,0,0,0,0,0,0,0,0,0,0,0,0,0,0,0,0,0,0,0,0,0,0,0,0,0,0,12.8,0.07313743,0,17.7183,0.4430837,0.00777331,6.640993,0.5892968,0,0
80.003,28.58307,0,0,-2.43483,27.20905,2.023438,54,57,-0.05208105,2.748085,28.58307,0,569.8113,0,-1.210079,-1.180862,1.024029,-2.531218,-43.9021,-36.37965,26.79722,-35.65152,80.39216,1.69,1967.5,26,20,0,45.88235,46.66667,0,42.8166,0.69,0,0,346.2,21.1883,5.374994,292,83,4620,0.97,2.730848,2.484375,1.827072,-0.00390625,0,0,0,0,0,0,0,0,0,0,0,0,12.88,0,0,0,0,0,0,0,0,0,53,37,0,0,0,0,0,0,0,0,0,0,0,0,0,0,0,0,0,0,0,0,0,0,0,0,0,0,0,0,0,0,0,0,0,0,0,0,0,0,0,0,0,0,0,0,0,0,0,0,0,0,0,0,0,0,0,12.9,0.04703316,0,39.5973,0,0,0,0,0,0
81.003,28.58307,0,0,19.97395,-11.45483,-7.695542,54,57,-0.05208105,2.748085,28.58307,0,569.8113,0,0.2027706,-0.3109629,0.2256712,2.562327,-40.23114,-26.49274,31.06038,-41.86617,80.39216,1.69,1967.5,26,20,0,45.88235,46.66667,0,42.8166,0.69,0,0,346.1,21.1883,5.374994,292,83,4620,0.97,2.730848,2.484375,1.827072,-0.00390625,0,0,0,0,0,0,0,0,0,0,0,0,12.88,0,0,0,0,0,0,0,0,0,53,37,0,0,0,0,0,0,0,0,0,0,0,0,0,0,0,0,0,0,0,0,0,0,0,0,0,0,0,0,0,0,0,0,0,0,0,0,0,0,0,0,0,0,0,0,0,0,0,0,0,0,0,0,0,0,0,12.9,0.04703316,0,39.5973,0,0,0,0,0,0
82.003,33.55404,5.110737,30.24367,-14.16789,-1.499222,0.9079133,54,57,0.3015462,10.4063,33.55404,0.01204201,254.5214,3.817822,0.05403538,0.321531,0.5983459,-2.25837,-37.18202,-27.94143,25.22468,-42.55913,68.62745,1.28,1482,26,20,0,34.90196,34.90196,0.8748498,23.937,0.31,15.40741,255.503,346.1,9.46432,5.375923,292,83,4620,0.97,2.499048,2.28125,3.37452,-0.00390625,0,0,0,0,0,0,0,0,0,0,0,0,12.88,0,0,0,0,0,0,0,0,0,53,37,0,0,0,0,0,0,0,0,0,0,0,0,0,0,0,0,0,0,0,0,0,0,0,0,0,0,0,0,0,0,0,0,0,0,0,0,0,0,0,0,0,0,0,0,0,0,0,0,0,0,0,0,0,0,0,12.9,0.09167384,0,36.23619,0.0471306,0.001182909,9.500819,0.085021,0,0
83.003,34.17542,1.359867,30.24543,2.66954,-1.807983,1.457779,54,57,0.433093,3.792541,34.17542,0.01380401,66.49186,1.015848,-0.4129611,0.05275963,-0.2817557,-3.023877,-36.16005,-27.57377,22.06492,-43.58302,0,1.03,1082,26,20,0,14.90196,14.90196,0.3620169,14.06294,0.06,4.09961,186.963,346.1,2.472484,5.37555,292,83,4620,0.97,7.84216,3.328125,12.1473,-0.00390625,0,0,0,0,0,0,0,0,0,0,0,0,12.88,0,0,0,0,0,0,0,0,0,53,37,0,0,0,0,0,0,0,0,0,0,0,0,0,0,0,0,0,0,0,0,0,0,0,0,0,0,0,0,0,0,0,0,0,0,0,0,0,0,0,0,0,0,0,0,0,0,0,0,0,0,0,0,0,0,0,14,0.09185776,0,113.7113,0.07383288,0.001355993,6.952174,0.1151116,0,0
84.003,34.17542,1.359867,30.24543,-4.288956,0.2907715,7.872162,54,57,0.433093,3.792541,34.17542,0.01380401,66.49186,1.015848,-0.3852209,0.1418029,-0.7101957,-2.858123,-36.53461,-25.57891,24.00187,-45.21388,0,1.03,1082,26,20,0,14.90196,14.90196,0.3620169,14.06294,0.06,4.09961,186.963,346.2,2.472484,5.37555,292,83,4620,0.97,7.84216,3.328125,12.1473,-0.00390625,0,0,0,0,0,0,0,0,0,0,0,0,12.88,0,0,0,0,0,0,0,0,0,53,37,0,0,0,0,0,0,0,0,0,0,0,0,0,0,0,0,0,0,0,0,0,0,0,0,0,0,0,0,0,0,0,0,0,0,0,0,0,0,0,0,0,0,0,0,0,0,0,0,0,0,0,0,0,0,0,14,0.09185776,0,113.7113,0.07383288,0.001355993,6.952174,0.1151116,0,0
85.003,28.58307,0,30.24543,-8.686981,6.945328,3.41304,54,57,-0.6152092,0,34.17542,0.01380401,0,0,0.6167623,0.6292193,0.02716264,1.845463,-36.78844,-22.07652,28.19924,-48.01126,0,0.99,1183.5,26,20,0,14.90196,14.90196,0.6503904,14.78479,0.02,0,142.5663,346.2,0,5.37496,292,83,4620,0.97,15.9903,3.632813,15.9903,-0.00390625,0,0,0,0,0,0,0,0,0,0,0,0,12.88,0,0,0,0,0,0,0,0,0,53,37,0,0,0,0,0,0,0,0,0,0,0,0,0,0,0,0,0,0,0,0,0,0,0,0,0,0,0,0,0,0,0,0,0,0,0,0,0,0,0,0,0,0,0,0,0,0,0,0,0,0,0,0,0,0,0,14,-0.04707721,0,231.8593,0.09682525,0.001355993,5.301293,0.1446044,0,0
86.003,28.58307,0,30.24543,1.842407,1.578568,-1.029678,54,57,-0.6152092,0,34.17542,0.01380401,0,0,0.2224544,0.2657475,0.4143076,1.040982,-39.52338,-22.1352,30.49185,-48.04649,0,0.99,1183.5,26,20,0,14.90196,14.90196,0.6503904,14.78479,0.02,0,142.5663,346.3,0,5.37496,292,83,4620,0.97,15.9903,3.632813,15.9903,-0.00390625,0,0,0,0,0,0,0,0,0,0,0,0,12.88,0,0,0,0,0,0,0,0,0,53,37,0,0,0,0,0,0,0,0,0,0,0,0,0,0,0,0,0,0,0,0,0,0,0,0,0,0,0,0,0,0,0,0,0,0,0,0,0,0,0,0,0,0,0,0,0,0,0,0,0,0,0,0,0,0,0,14,-0.04707721,0,231.8593,0.09682525,0.001355993,5.301293,0.1446044,0,0
87.003,22.99073,0,30.24543,0.06684875,5.35553,-3.785462,54,57,-1.401188,0,34.17542,0.01380401,0,0,0.1295839,0.1611044,-1.623872,0.9331828,-38.3764,-23.26804,29.07697,-47.93092,0.7843137,0.97,1158,16,21,0,14.90196,14.90196,0.3810065,14.17398,0,0,120.0253,346.3,0,5.374493,292,83,4620,0.97,15.9903,3.679688,15.9903,-0.00390625,0,0,0,0,0,0,0,0,0,0,0,0,12.88,0,0,0,0,0,0,0,0,0,53,37,0,0,0,0,0,0,0,0,0,0,0,0,0,0,0,0,0,0,0,0,0,0,0,0,0,0,0,0,0,0,0,0,0,0,0,0,0,0,0,0,0,0,0,0,0,0,0,0,0,0,0,0,0,0,0,15,-0.2042573,0,231.8593,0.1150092,0.001355993,4.463112,0.1796249,0,0
88.003,22.99073,0,30.24543,-41.52208,-29.48096,-19.36316,54,57,-1.401188,0,34.17542,0.01380401,0,0,-0.4804186,-0.2492421,0.3360348,-0.6042015,-44.39404,-26.43423,32.21865,-44.74344,0.7843137,0.97,1158,16,21,0,14.90196,14.90196,0.3810065,14.17398,0,0,120.0253,346.3,0,5.374493,292,83,4620,0.97,15.9903,3.679688,15.9903,-0.00390625,0,0,0,0,0,0,0,0,0,0,0,0,12.88,0,0,0,0,0,0,0,0,0,53,37,0,0,0,0,0,0,0,0,0,0,0,0,0,0,0,0,0,0,0,0,0,0,0,0,0,0,0,0,0,0,0,0,0,0,0,0,0,0,0,0,0,0,0,0,0,0,0,0,0,0,0,0,0,0,0,15,-0.2042573,0,231.8593,0.1150092,0.001355993,4.463112,0.1796249,0,0
89.003,16.15565,0.01643663,30.24545,-1.911591,-7.978271,3.821289,54,57,-1.434022,0.04925433,34.17542,0.01382979,1.700099,0.01227849,0.1474077,0.08534826,-0.6290951,-2.40848,-40.60976,-29.33909,26.46589,-44.20972,0,0.97,1007,16,21,0,14.90196,14.90196,0.4736168,12.75201,0,0.04955174,106.2392,346.3,0.06321777,5.374108,292,83,4620,0.97,10.05768,3.4375,6.055592,-0.00390625,0,0,0,0,0,0,0,0,0,0,0,0,12.88,0,0,0,0,0,0,0,0,0,53,37,0,0,0,0,0,0,0,0,0,0,0,0,0,0,0,0,0,0,0,0,0,0,0,0,0,0,0,0,0,0,0,0,0,0,0,0,0,0,0,0,0,0,0,0,0,0,0,0,0,0,0,0,0,0,0,15,-0.349759,0,145.8364,0.130176,0.001358526,3.95048,0.2086752,0,0
90.003,16.15565,0.01643663,30.24545,0.4907684,-0.2979126,7.17897,54,57,-1.434022,0.04925433,34.17542,0.01382979,1.700099,0.01227849,0.07762211,0.2717847,-0.6825593,-1.454228,-39.16932,-30.28919,25.2635,-41.52309,0,0.97,1007,16,21,0,14.90196,14.90196,0.4736168,12.75201,0,0.04955174,106.2392,346.4,0.06321777,5.374108,292,83,4620,0.97,10.05768,3.4375,6.055592,-0.00390625,0,0,0,0,0,0,0,0,0,0,0,0,12.88,0,0,0,0,0,0,0,0,0,53,37,0,0,0,0,0,0,0,0,0,0,0,0,0,0,0,0,0,0,0,0,0,0,0,0,0,0,0,0,0,0,0,0,0,0,0,0,0,0,0,0,0,0,0,0,0,0,0,0,0,0,0,0,0,0,0,15,-0.349759,0,145.8364,0.130176,0.001358526,3.95048,0.2086752,0,0
91.003,14.29154,0,30.24545,-5.816132,-0.8437499,-0.05909729,54,57,-0.9663782,0,34.17542,0.01382979,0,0,0.2067141,0.3242978,0.2193045,-4.311907,-39.66485,-31.56268,22.82702,-40.91302,37.2549,0.98,1079.5,16,21,0,38.43137,40,0.5043206,13.81103,0.01,0,97.86134,346.4,0,5.373822,292,83,4620,0.97,1.277584,0.8203125,1.201456,-0.00390625,0,0,0,0,0,0,0,0,0,0,0,0,12.88,0,0,0,0,0,0,0,0,0,53,37,0,0,0,0,0,0,0,0,0,0,0,0,0,0,0,0,0,0,0,0,0,0,0,0,0,0,0,0,0,0,0,0,0,0,0,0,0,0,0,0,0,0,0,0,0,0,0,0,0,0,0,0,0,0,0,13.4,-0.4132575,0,18.52497,0.1413203,0.001358526,3.638951,0.2387499,0,0
92.003,14.29154,0,30.24545,-9.235916,-3.268936,-2.103409,54,57,-0.9663782,0,34.17542,0.01382979,0,0,-1.034485,-0.09174296,0.5889075,-9.58322,-41.0963,-33.07959,14.12074,-36.75452,37.2549,0.98,1079.5,16,21,0,38.43137,40,0.5043206,13.81103,0.01,0,97.86134,346.5,0,5.373822,292,83,4620,0.97,1.277584,0.8203125,1.201456,-0.00390625,0,0,0,0,0,0,0,0,0,0,0,0,12.88,0,0,0,0,0,0,0,0,0,53,37,0,0,0,0,0,0,0,0,0,0,0,0,0,0,0,0,0,0,0,0,0,0,0,0,0,0,0,0,0,0,0,0,0,0,0,0,0,0,0,0,0,0,0,0,0,0,0,0,0,0,0,0,0,0,0,13.4,-0.4132575,0,18.52497,0.1413203,0.001358526,3.638951,0.2387499,0,0
93.003,15.53428,3.404288,30.25002,13.06377,-7.669708,-9.626694,54,57,-0.08392965,5.391112,34.17542,0.01839053,366.2022,2.543071,-0.01162203,-0.08468464,-0.4230691,-6.047431,-39.7768,-40.36971,6.536379,-29.6311,99.21568,1.64,1905.5,16,21,0,48.23529,49.41177,2.215302,40.79718,0.67,10.26295,119.5974,346.5,13.61714,5.374312,292,83,4620,0.97,1.701168,1.597656,1.588928,-0.00390625,0,0,0,0,0,0,0,0,0,0,0,0,12.88,0,0,0,0,0,0,0,0,0,53,37,0,0,0,0,0,0,0,0,0,0,0,0,0,0,0,0,0,0,0,0,0,0,0,0,0,0,0,0,0,0,0,0,0,0,0,0,0,0,0,0,0,0,0,0,0,0,0,0,0,0,0,0,0,0,0,13.4,-0.3822695,0,24.66694,0.1537704,0.001806535,4.4472,0.2677815,0,0
94.003,15.53428,3.404288,30.25002,0.1087341,-4.598007,4.516312,54,57,-0.08392965,5.391112,34.17542,0.01839053,366.2022,2.543071,-0.506494,-0.5481497,0.4607713,-5.831297,-41.62144,-36.98719,10.56309,-33.04947,99.21568,1.64,1905.5,16,21,0,48.23529,49.41177,2.215302,40.79718,0.67,10.26295,119.5974,346.6,13.61714,5.374312,292,83,4620,0.97,1.701168,1.597656,1.588928,-0.00390625,0,0,0,0,0,0,0,0,0,0,0,0,12.88,0,0,0,0,0,0,0,0,0,53,37,0,0,0,0,0,0,0,0,0,0,0,0,0,0,0,0,0,0,0,0,0,0,0,0,0,0,0,0,0,0,0,0,0,0,0,0,0,0,0,0,0,0,0,0,0,0,0,0,0,0,0,0,0,0,0,13.4,-0.3822695,0,24.66694,0.1537704,0.001806535,4.4472,0.2677815,0,0
95.003,22.36936,17.8245,30.27326,-2.544647,-8.187988,-1.268448,54,57,1.029811,29.6103,34.17542,0.04163716,1331.525,13.31525,-0.1153132,-0.104803,0.4733451,-0.1698288,-40.11068,-37.99904,20.56969,-34.0938,60.39216,1.68,1816.5,29,21,0,49.01961,49.41177,2.467406,39.84025,0.71,53.73574,243.1605,346.5,49.51245,5.377994,292,83,4620,0.97,1.41276,1.09375,1.30052,-0.00390625,0,0,0,0,0,0,0,0,0,0,0,0,12.88,0,0,0,0,0,0,0,0,0,53,37,0,0,0,0,0,0,0,0,0,0,0,0,0,0,0,0,0,0,0,0,0,0,0,0,0,0,0,0,0,0,0,0,0,0,0,0,0,0,0,0,0,0,0,0,0,0,0,0,0,0,0,0,0,0,0,12.9,-0.1913487,0,20.48502,0.1712332,0.004090095,9.041867,0.303401,0,0
96.003,27.34033,5.12435,30.2814,9.089065,-5.732239,14.82988,54,57,1.397554,8.322505,34.17542,0.04977715,313.1992,3.827991,-0.6209074,-0.9684631,0.3433167,0.4802651,-41.05177,-38.69111,21.41987,-33.00909,78.43137,1.47,1858,29,21,0,45.09804,45.4902,1.277423,34.12251,0.5,15.44845,252.4004,346.5,11.64624,5.378772,292,83,4620,0.97,1.459608,1.171875,1.339072,-0.00390625,0,0,0,0,0,0,0,0,0,0,0,0,12.88,0,0,0,0,0,0,0,0,0,53,37,0,0,0,0,0,0,0,0,0,0,0,0,0,0,0,0,0,0,0,0,0,0,0,0,0,0,0,0,0,0,0,0,0,0,0,0,0,0,0,0,0,0,0,0,0,0,0,0,0,0,0,0,0,0,0,12.9,-0.08681209,0,21.16432,0.1972151,0.004889701,9.385448,0.3321076,0,0
97.003,27.34033,5.12435,30.2814,-4.128677,-1.014145,-0.428955,54,57,1.397554,8.322505,34.17542,0.04977715,313.1992,3.827991,0.01473711,0.1258803,0.3172924,-1.395531,-42.2968,-37.89265,19.67046,-32.55836,78.43137,1.47,1858,29,21,0,45.09804,45.4902,1.277423,34.12251,0.5,15.44845,252.4004,346.5,11.64624,5.378772,292,83,4620,0.97,1.459608,1.171875,1.339072,-0.00390625,0,0,0,0,0,0,0,0,0,0,0,0,12.88,0,0,0,0,0,0,0,0,0,53,37,0,0,0,0,0,0,0,0,0,0,0,0,0,0,0,0,0,0,0,0,0,0,0,0,0,0,0,0,0,0,0,0,0,0,0,0,0,0,0,0,0,0,0,0,0,0,0,0,0,0,0,0,0,0,0,12.9,-0.08681209,0,21.16432,0.1972151,0.004889701,9.385448,0.3321076,0,0
98.003,27.34033,5.12435,30.2814,2.55249,-19.0744,2.239899,54,57,1.397554,8.322505,34.17542,0.04977715,313.1992,3.827991,-0.3743826,0.2146852,1.029613,-5.244161,-41.51593,-35.04607,11.96436,-31.10883,78.43137,1.47,1858,29,21,0,45.09804,45.4902,1.277423,34.12251,0.5,15.44845,252.4004,346.5,11.64624,5.378772,292,83,4620,0.97,1.459608,1.171875,1.339072,-0.00390625,0,0,0,0,0,0,0,0,0,0,0,0,12.88,0,0,0,0,0,0,0,0,0,53,37,0,0,0,0,0,0,0,0,0,0,0,0,0,0,0,0,0,0,0,0,0,0,0,0,0,0,0,0,0,0,0,0,0,0,0,0,0,0,0,0,0,0,0,0,0,0,0,0,0,0,0,0,0,0,0,12.9,-0.08681209,0,21.16432,0.1972151,0.004889701,9.385448,0.3321076,0,0
99.003,30.44719,5.162847,30.28812,-5.819199,5.344955,-10.84941,54,57,0.9211544,7.76059,34.17542,0.0564961,283.353,3.856749,0.6303537,-0.05352071,-1.03364,-4.098818,-38.12623,-34.53357,15.54453,-33.70313,59.21569,1.37,2007.5,29,21,0,39.60784,39.60784,0.9688706,34.36008,0.4,15.56451,255.7124,346.5,10.53642,5.379356,311,83,4620,0.97,1.259528,0.7421875,1.229272,-0.00390625,0,0,0,0,0,0,0,0,0,0,0,0,12.98,0,0,0,0,0,0,0,0,0,63,40,0,0,0,0,0,0,0,0,0,0,0,0,0,0,0,0,0,0,0,0,0,0,0,0,0,0,0,0,0,0,0,0,0,0,0,0,0,0,0,0,0,0,0,0,0,0,0,0,0,0,0,0,0,0,0,13,0.003298449,0,18.26316,0.2209361,0.005549715,9.508606,0.3699208,0,0
100.003,32.3113,3.277467,30.29363,-2.004395,-3.470184,-11.51756,54,57,0.5838144,8.139975,34.17542,0.06200248,169.5,2.448333,-0.4660932,0.1202296,0.09885579,-5.036149,-37.49637,-33.86676,14.00018,-33.7455,90.58823,1.21,1215,29,21,0,41.17647,41.96078,0.7539768,18.36706,0.24,9.880624,244.6741,346.5,6.302816,5.379499,311,83,4620,0.97,1.192672,0.578125,1.167296,-0.00390625,0,0,0,0,0,0,0,0,0,0,0,0,12.98,0,0,0,0,0,0,0,0,0,63,40,0,0,0,0,0,0,0,0,0,0,0,0,0,0,0,0,0,0,0,0,0,0,0,0,0,0,0,0,0,0,0,0,0,0,0,0,0,0,0,0,0,0,0,0,0,0,0,0,0,0,0,0,0,0,0,13,-0.03035846,0,17.29374,0.2534085,0.006090617,9.098148,0.3986407,0,0
101.003,32.3113,3.277467,30.29363,0.8601379,4.499496,-1.425552,54,57,0.5838144,8.139975,34.17542,0.06200248,169.5,2.448333,0.1040267,0.1084659,-0.1605198,-4.744102,-36.82176,-32.11314,15.53055,-35.09749,90.58823,1.21,1215,29,21,0,41.17647,41.96078,0.7539768,18.36706,0.24,9.880624,244.6741,346.5,6.302816,5.379499,311,83,4620,0.97,1.192672,0.578125,1.167296,-0.00390625,0,0,0,0,0,0,0,0,0,0,0,0,12.98,0,0,0,0,0,0,0,0,0,63,40,0,0,0,0,0,0,0,0,0,0,0,0,0,0,0,0,0,0,0,0,0,0,0,0,0,0,0,0,0,0,0,0,0,0,0,0,0,0,0,0,0,0,0,0,0,0,0,0,0,0,0,0,0,0,0,13,-0.03035846,0,17.29374,0.2534085,0.006090617,9.098148,0.3986407,0,0
102.003,32.3113,3.277467,30.29363,0.6612854,2.738419,12.67476,54,57,0.5838144,8.139975,34.17542,0.06200248,169.5,2.448333,1.190786,0.06376296,-0.4915791,-4.509033,-36.7416,-33.36343,12.84354,-33.28458,90.58823,1.21,1215,29,21,0,41.17647,41.96078,0.7539768,18.36706,0.24,9.880624,244.6741,346.5,6.302816,5.379499,311,83,4620,0.97,1.192672,0.578125,1.167296,-0.00390625,0,0,0,0,0,0,0,0,0,0,0,0,12.98,0,0,0,0,0,0,0,0,0,63,40,0,0,0,0,0,0,0,0,0,0,0,0,0,0,0,0,0,0,0,0,0,0,0,0,0,0,0,0,0,0,0,0,0,0,0,0,0,0,0,0,0,0,0,0,0,0,0,0,0,0,0,0,0,0,0,13,-0.03035846,0,17.29374,0.2534085,0.006090617,9.098148,0.3986407,0,0
103.003,33.55404,4.727518,30.29978,-8.059723,5.577301,-10.58125,54,57,0.3449583,12.09986,34.17542,0.06815864,235.4366,3.531549,-0.3494231,-0.0558459,-0.6316656,-4.506805,-37.19118,-33.63259,11.87879,-33.11716,91.37255,1.24,1179,22,21,0,40.39216,40.39216,1.174619,18.26474,0.27,14.25211,243.848,346.5,8.754656,5.379922,311,83,4620,0.97,1.260992,0.75,1.238544,-0.00390625,0,0,0,0,0,0,0,0,0,0,0,0,12.98,0,0,0,0,0,0,0,0,0,63,40,0,0,0,0,0,0,0,0,0,0,0,0,0,0,0,0,0,0,0,0,0,0,0,0,0,0,0,0,0,0,0,0,0,0,0,0,0,0,0,0,0,0,0,0,0,0,0,0,0,0,0,0,0,0,0,13,-0.01432849,0,18.28438,0.2795129,0.006695348,9.06743,0.4336312,0,0
104.003,34.79679,5.057283,30.3077,-9.694092,9.106628,-5.498947,54,57,0.2918953,12.42233,34.79679,0.07607105,242.8644,3.777891,0.9256506,0.4584463,-1.205122,-4.004531,-36.86124,-33.61883,13.66531,-33.032,90.19608,1.27,1228.5,22,21,0,41.56863,41.96078,1.254065,19.95431,0.3,15.24626,243.6782,346.5,9.030856,5.380487,311,83,4620,0.97,1.271728,0.7695313,1.247816,-0.00390625,0,0,0,0,0,0,0,0,0,0,0,0,12.98,0,0,0,0,0,0,0,0,0,63,40,0,0,0,0,0,0,0,0,0,0,0,0,0,0,0,0,0,0,0,0,0,0,0,0,0,0,0,0,0,0,0,0,0,0,0,0,0,0,0,0,0,0,0,0,0,0,0,0,0,0,0,0,0,0,0,13,0.1510625,0,18.44006,0.3121784,0.007472598,9.061116,0.462654,0,0
105.003,34.79679,5.057283,30.3077,-14.56082,-1.262283,7.492111,54,57,0.2918953,12.42233,34.79679,0.07607105,242.8644,3.777891,-0.7566726,0.2959196,-0.7088894,-6.603946,-36.62809,-33.19699,9.868748,-32.37201,90.19608,1.27,1228.5,22,21,0,41.56863,41.96078,1.254065,19.95431,0.3,15.24626,243.6782,346.5,9.030856,5.380487,311,83,4620,0.97,1.271728,0.7695313,1.247816,-0.00390625,0,0,0,0,0,0,0,0,0,0,0,0,12.98,0,0,0,0,0,0,0,0,0,63,40,0,0,0,0,0,0,0,0,0,0,0,0,0,0,0,0,0,0,0,0,0,0,0,0,0,0,0,0,0,0,0,0,0,0,0,0,0,0,0,0,0,0,0,0,0,0,0,0,0,0,0,0,0,0,0,13,0.1510625,0,18.44006,0.3121784,0.007472598,9.061116,0.462654,0,0
106.003,36.6609,5.050247,30.31427,14.09076,-0.03456116,8.216019,54,57,0.3716169,12.09492,36.6609,0.08264925,230.1947,3.772635,-0.6642666,0.2267234,0.5882669,-2.661778,-39.55875,-35.80424,16.46807,-32.20348,81.56863,1.27,1260,22,21,0,38.43137,38.43137,1.217537,20.46596,0.3,15.22505,242.5794,346.6,8.559734,5.380922,311,83,4620,0.97,1.346392,0.9453125,1.348344,-0.00390625,0,0,0,0,0,0,0,0,0,0,0,0,12.98,0,0,0,0,0,0,0,0,0,63,40,0,0,0,0,0,0,0,0,0,0,0,0,0,0,0,0,0,0,0,0,0,0,0,0,0,0,0,0,0,0,0,0,0,0,0,0,0,0,0,0,0,0,0,0,0,0,0,0,0,0,0,0,0,0,0,13,0.3402326,0,19.52268,0.3407101,0.008118787,9.020258,0.4930668,0,0
107.003,36.6609,5.050247,30.31427,-15.55487,-6.122253,-9.388733,54,57,0.3716169,12.09492,36.6609,0.08264925,230.1947,3.772635,-0.6365456,0.003229196,0.9542731,-5.438476,-39.62238,-34.89563,12.1379,-31.39005,81.56863,1.27,1260,22,21,0,38.43137,38.43137,1.217537,20.46596,0.3,15.22505,242.5794,346.7,8.559734,5.380922,311,83,4620,0.97,1.346392,0.9453125,1.348344,-0.00390625,0,0,0,0,0,0,0,0,0,0,0,0,12.98,0,0,0,0,0,0,0,0,0,63,40,0,0,0,0,0,0,0,0,0,0,0,0,0,0,0,0,0,0,0,0,0,0,0,0,0,0,0,0,0,0,0,0,0,0,0,0,0,0,0,0,0,0,0,0,0,0,0,0,0,0,0,0,0,0,0,13,0.3402326,0,19.52268,0.3407101,0.008118787,9.020258,0.4930668,0,0
108.003,37.28227,3.220662,30.31868,6.45787,-9.346558,0.2624054,54,57,0.3151188,7.631452,37.28227,0.08705517,144.3539,2.405898,-0.89655,0.5379363,1.666432,-7.609886,-40.00085,-35.85894,6.894268,-29.3157,67.45098,1.12,1273.5,22,21,0,32.15686,32.15686,0.8371121,18.2421,0.15,9.709373,234.4883,346.8,5.367765,5.38092,311,83,4620,0.97,1.637728,1.4375,1.666032,-0.00390625,0,0,0,0,0,0,0,0,0,0,0,0,12.98,0,0,0,0,0,0,0,0,0,63,40,0,0,0,0,0,0,0,0,0,0,0,0,0,0,0,0,0,0,0,0,0,0,0,0,0,0,0,0,0,0,0,0,0,0,0,0,0,0,0,0,0,0,0,0,0,0,0,0,0,0,0,0,0,0,0,13,0.5008906,0,23.74706,0.3712559,0.008551588,8.719393,0.5224556,0,0
109.003,37.28227,3.220662,30.31868,9.706177,-26.75583,5.799377,54,57,0.3151188,7.631452,37.28227,0.08705517,144.3539,2.405898,-0.7085144,-1.15547,1.618548,-7.053116,-39.16733,-35.47813,7.862736,-30.76485,67.45098,1.12,1273.5,22,21,0,32.15686,32.15686,0.8371121,18.2421,0.15,9.709373,234.4883,346.8,5.367765,5.38092,311,83,4620,0.97,1.637728,1.4375,1.666032,-0.00390625,0,0,0,0,0,0,0,0,0,0,0,0,12.98,0,0,0,0,0,0,0,0,0,63,40,0,0,0,0,0,0,0,0,0,0,0,0,0,0,0,0,0,0,0,0,0,0,0,0,0,0,0,0,0,0,0,0,0,0,0,0,0,0,0,0,0,0,0,0,0,0,0,0,0,0,0,0,0,0,0,13,0.5008906,0,23.74706,0.3712559,0.008551588,8.719393,0.5224556,0,0
110.003,37.28227,2.329594,30.32181,-12.63141,11.87177,-8.381668,54,57,0.07578167,5.554937,37.28227,0.09018918,104.4152,1.740253,1.123176,0.7574056,0.6630316,-6.620803,-39.76409,-36.42373,7.568594,-29.39684,57.2549,1.03,1265.5,20,21,0,29.41176,29.41176,0.7244781,16.67083,0.06,7.023059,224.8658,346.8,3.882654,5.38071,311,83,4620,0.97,1.519632,1.234375,1.430328,-0.00390625,0,0,0,0,0,0,0,0,0,0,0,0,12.98,0,0,0,0,0,0,0,0,0,63,40,0,0,0,0,0,0,0,0,0,0,0,0,0,0,0,0,0,0,0,0,0,0,0,0,0,0,0,0,0,0,0,0,0,0,0,0,0,0,0,0,0,0,0,0,0,0,0,0,0,0,0,0,0,0,0,13,0.5486645,0,22.03466,0.40108,0.008859448,8.361583,0.5581163,0,0
111.003,37.28227,2.329594,30.32181,12.6432,6.695114,2.720474,54,57,0.07578167,5.554937,37.28227,0.09018918,104.4152,1.740253,-1.196722,-0.9885495,-0.5112926,-8.094253,-37.71254,-34.85907,5.442793,-29.71185,57.2549,1.03,1265.5,20,21,0,29.41176,29.41176,0.7244781,16.67083,0.06,7.023059,224.8658,346.8,3.882654,5.38071,311,83,4620,0.97,1.519632,1.234375,1.430328,-0.00390625,0,0,0,0,0,0,0,0,0,0,0,0,12.98,0,0,0,0,0,0,0,0,0,63,40,0,0,0,0,0,0,0,0,0,0,0,0,0,0,0,0,0,0,0,0,0,0,0,0,0,0,0,0,0,0,0,0,0,0,0,0,0,0,0,0,0,0,0,0,0,0,0,0,0,0,0,0,0,0,0,13,0.5486645,0,22.03466,0.40108,0.008859448,8.361583,0.5581163,0,0
112.003,37.28227,2.349474,30.32549,4.419083,3.13681,7.153519,54,57,9.020562E-16,5.58249,37.28227,0.09386566,105.3062,1.755104,-0.9786201,0.07594752,0.08937197,-9.684383,-38.33187,-34.15674,3.452278,-28.39253,73.33334,1.1,1270,20,21,0,32.15686,30.98039,0.86035,17.989,0.13,7.082992,215.2008,346.9,3.915787,5.380462,311,83,4620,0.97,1.525976,1.257813,1.60064,-0.00390625,0,0,0,0,0,0,0,0,0,0,0,0,12.98,0,0,0,0,0,0,0,0,0,63,40,0,0,0,0,0,0,0,0,0,0,0,0,0,0,0,0,0,0,0,0,0,0,0,0,0,0,0,0,0,0,0,0,0,0,0,0,0,0,0,0,0,0,0,0,0,0,0,0,0,0,0,0,0,0,0,13,0.5176765,0,22.12665,0.436177,0.009220595,8.002192,0.5871946,0,0
113.003,37.28227,2.349474,30.32549,16.68095,-1.348145,-14.1167,54,57,9.020562E-16,5.58249,37.28227,0.09386566,105.3062,1.755104,0.1671721,-0.3734094,-1.948071,-10.83666,-35.53545,-32.46682,0.8697929,-27.86958,73.33334,1.1,1270,20,21,0,32.15686,30.98039,0.86035,17.989,0.13,7.082992,215.2008,346.8,3.915787,5.380462,311,83,4620,0.97,1.525976,1.257813,1.60064,-0.00390625,0,0,0,0,0,0,0,0,0,0,0,0,12.98,0,0,0,0,0,0,0,0,0,63,40,0,0,0,0,0,0,0,0,0,0,0,0,0,0,0,0,0,0,0,0,0,0,0,0,0,0,0,0,0,0,0,0,0,0,0,0,0,0,0,0,0,0,0,0,0,0,0,0,0,0,0,0,0,0,0,13,0.5176765,0,22.12665,0.436177,0.009220595,8.002192,0.5871946,0,0
114.003,37.28227,2.330995,30.32853,16.20854,-11.04817,8.747742,54,57,9.020562E-16,5.586973,37.28227,0.09690436,104.4779,1.741299,-0.08230047,-1.234858,-0.7896975,-11.38232,-37.54885,-31.90106,-1.894371,-26.8689,52.94118,1.05,1259,20,21,0,14.90196,14.90196,0.6640724,17.02259,0.08,7.027281,208.2871,346.8,3.884988,5.380254,311,83,4620,0.97,4.478376,2.914063,15.9903,-0.00390625,0,0,0,0,0,0,0,0,0,0,0,0,12.98,0,0,0,0,0,0,0,0,0,63,40,0,0,0,0,0,0,0,0,0,0,0,0,0,0,0,0,0,0,0,0,0,0,0,0,0,0,0,0,0,0,0,0,0,0,0,0,0,0,0,0,0,0,0,0,0,0,0,0,0,0,0,0,0,0,0,14.6,0.3427023,0,64.93645,0.4652442,0.009519092,7.745106,0.6172757,0,0
115.003,36.6609,1.213292,30.33016,5.390259,11.07378,-5.040421,54,57,-0.07721972,3.083137,37.28227,0.0985323,55.30291,0.9063532,-0.03634946,-0.180368,0.6685559,-11.43774,-36.0557,-33.09929,-2.296642,-25.84164,0,0.99,1187.5,20,21,0,14.90196,14.90196,0.4829758,15.13838,0.02,3.657728,199.1672,346.9,2.056426,5.379786,311,83,4620,0.97,13.33411,3.566406,15.9903,-0.00390625,0,0,0,0,0,0,0,0,0,0,0,0,12.98,0,0,0,0,0,0,0,0,0,63,40,0,0,0,0,0,0,0,0,0,0,0,0,0,0,0,0,0,0,0,0,0,0,0,0,0,0,0,0,0,0,0,0,0,0,0,0,0,0,0,0,0,0,0,0,0,0,0,0,0,0,0,0,0,0,0,14.6,0.2227218,0,193.3446,0.4947216,0.009679008,7.405985,0.6463274,0,0
116.003,36.6609,1.213292,30.33016,-1.543411,2.436615,7.022933,54,57,-0.07721972,3.083137,37.28227,0.0985323,55.30291,0.9063532,-0.4730397,-0.1630104,-0.001394558,-9.067636,-38.28141,-35.57645,-1.363541,-18.0442,0,0.99,1187.5,20,21,0,14.90196,14.90196,0.4829758,15.13838,0.02,3.657728,199.1672,346.8,2.056426,5.379786,311,83,4620,0.97,13.33411,3.566406,15.9903,-0.00390625,0,0,0,0,0,0,0,0,0,0,0,0,12.98,0,0,0,0,0,0,0,0,0,63,40,0,0,0,0,0,0,0,0,0,0,0,0,0,0,0,0,0,0,0,0,0,0,0,0,0,0,0,0,0,0,0,0,0,0,0,0,0,0,0,0,0,0,0,0,0,0,0,0,0,0,0,0,0,0,0,14.6,0.2227218,0,193.3446,0.4947216,0.009679008,7.405985,0.6463274,0,0
117.003,36.6609,1.213292,30.33016,-7.556351,2.550919,-13.16389,54,57,-0.07721972,3.083137,37.28227,0.0985323,55.30291,0.9063532,-0.1762592,0.884636,0.05785706,-9.190142,-39.76087,-33.00175,-5.064262,-22.12653,0,0.99,1187.5,20,21,0,14.90196,14.90196,0.4829758,15.13838,0.02,3.657728,199.1672,346.9,2.056426,5.379786,311,83,4620,0.97,13.33411,3.566406,15.9903,-0.00390625,0,0,0,0,0,0,0,0,0,0,0,0,12.98,0,0,0,0,0,0,0,0,0,63,40,0,0,0,0,0,0,0,0,0,0,0,0,0,0,0,0,0,0,0,0,0,0,0,0,0,0,0,0,0,0,0,0,0,0,0,0,0,0,0,0,0,0,0,0,0,0,0,0,0,0,0,0,0,0,0,14.6,0.2227218,0,193.3446,0.4947216,0.009679008,7.405985,0.6463274,0,0
118.003,34.79679,0,30.33016,-3.273605,7.05925,-13.77316,57,56,-0.3171968,0,37.28227,0.0985323,0,0,0.8572254,1.089217,1.080648,-6.651615,-39.30082,-34.65799,1.397701,-23.39912,0,0.98,1123.5,17,21,0,25.4902,24.31373,0.5029005,14.17783,0.01,0,188.8568,346.9,0,5.379094,330,83,4620,0.97,1.371768,0.9765625,1.348344,-0.00390625,0,0,0,0,0,0,0,0,0,0,0,0,12.98,0,0,0,0,0,0,0,0,0,46,42,0,0,0,0,0,0,0,0,0,0,0,0,0,0,0,0,0,0,0,0,0,0,0,0,0,0,0,0,0,0,0,0,0,0,0,0,0,0,0,0,0,0,0,0,0,0,0,0,0,0,0,0,0,0,0,13,0.09503202,0,19.89064,0.5217304,0.009679008,7.022594,0.6988282,0,0
119.003,34.79679,0,30.33016,10.78893,-2.916107,0.7177124,57,56,-0.3171968,0,37.28227,0.0985323,0,0,0.3686382,0.4851765,-0.391066,-7.901569,-37.51122,-34.34006,-4.223625,-22.2392,0,0.98,1123.5,17,21,0,25.4902,24.31373,0.5029005,14.17783,0.01,0,188.8568,346.9,0,5.379094,330,83,4620,0.97,1.371768,0.9765625,1.348344,-0.00390625,0,0,0,0,0,0,0,0,0,0,0,0,12.98,0,0,0,0,0,0,0,0,0,46,42,0,0,0,0,0,0,0,0,0,0,0,0,0,0,0,0,0,0,0,0,0,0,0,0,0,0,0,0,0,0,0,0,0,0,0,0,0,0,0,0,0,0,0,0,0,0,0,0,0,0,0,0,0,0,0,13,0.09503202,0,19.89064,0.5217304,0.009679008,7.022594,0.6988282,0,0
120.003,33.55404,0,30.33016,0.2885437,31.40359,9.184647,57,56,-0.3282749,0,37.28227,0.0985323,0,0,1.26208,0.9223803,-1.951826,-8.564335,-39.81422,-34.69074,-4.23037,-20.6133,0,1.01,1102.5,17,21,0,14.90196,14.90196,0.5452645,14.48698,0.04,0,173.1921,347,0,5.377883,330,83,4620,0.97,7.322928,3.292969,15.9903,-0.00390625,0,0,0,0,0,0,0,0,0,0,0,0,12.98,0,0,0,0,0,0,0,0,0,46,42,0,0,0,0,0,0,0,0,0,0,0,0,0,0,0,0,0,0,0,0,0,0,0,0,0,0,0,0,0,0,0,0,0,0,0,0,0,0,0,0,0,0,0,0,0,0,0,0,0,0,0,0,0,0,0,13,0.04030389,0,106.1825,0.5689191,0.009679008,6.440108,0.7275787,0,0
121.003,33.55404,0,30.33016,0.1587524,-3.580475,-12.36563,57,56,-0.3282749,0,37.28227,0.0985323,0,0,-0.3602126,0.1070451,-0.08953023,-9.128323,-40.93513,-33.61414,-4.725517,-20.64856,0,1.01,1102.5,17,21,0,14.90196,14.90196,0.5452645,14.48698,0.04,0,173.1921,347,0,5.377883,330,83,4620,0.97,7.322928,3.292969,15.9903,-0.00390625,0,0,0,0,0,0,0,0,0,0,0,0,12.98,0,0,0,0,0,0,0,0,0,46,42,0,0,0,0,0,0,0,0,0,0,0,0,0,0,0,0,0,0,0,0,0,0,0,0,0,0,0,0,0,0,0,0,0,0,0,0,0,0,0,0,0,0,0,0,0,0,0,0,0,0,0,0,0,0,0,13,0.04030389,0,106.1825,0.5689191,0.009679008,6.440108,0.7275787,0,0
122.003,31.68993,0,30.33016,-6.066971,-9.058151,-9.200653,57,56,-0.3265017,0,37.28227,0.0985323,0,0,-0.8339478,-0.5403234,0.08589935,-8.792461,-42.6558,-33.06216,-4.852467,-18.97677,55.68628,1.01,1100,17,21,0,33.72549,36.07843,0.5765659,14.45413,0.04,0,165.9633,347,0,5.377248,330,83,4620,0.97,1.2322,0.6289063,1.096536,-0.00390625,0,0,0,0,0,0,0,0,0,0,0,0,12.98,0,0,0,0,0,0,0,0,0,46,42,0,0,0,0,0,0,0,0,0,0,0,0,0,0,0,0,0,0,0,0,0,0,0,0,0,0,0,0,0,0,0,0,0,0,0,0,0,0,0,0,0,0,0,0,0,0,0,0,0,0,0,0,0,0,0,13,-0.03925996,0,17.8669,0.5936995,0.009679008,6.171305,0.7581844,0,0
123.003,31.68993,0,30.33016,15.61182,-1.064911,-6.469284,57,56,-0.3265017,0,37.28227,0.0985323,0,0,0.546309,-0.4864917,-0.1085189,-6.41114,-41.2352,-35.02486,-3.161278,-18.51786,55.68628,1.01,1100,17,21,0,33.72549,36.07843,0.5765659,14.45413,0.04,0,165.9633,347,0,5.377248,330,83,4620,0.97,1.2322,0.6289063,1.096536,-0.00390625,0,0,0,0,0,0,0,0,0,0,0,0,12.98,0,0,0,0,0,0,0,0,0,46,42,0,0,0,0,0,0,0,0,0,0,0,0,0,0,0,0,0,0,0,0,0,0,0,0,0,0,0,0,0,0,0,0,0,0,0,0,0,0,0,0,0,0,0,0,0,0,0,0,0,0,0,0,0,0,0,13,-0.03925996,0,17.8669,0.5936995,0.009679008,6.171305,0.7581844,0,0
124.003,32.3113,2.570336,30.33367,6.094925,-3.810806,-4.105591,57,56,-0.1623587,6.836698,37.28227,0.10205,132.9294,1.920092,0.05686281,0.2850198,-1.385548,-5.876533,-39.61391,-36.28155,-2.532059,-20.12798,100,1.16,1134.5,17,21,0,44.70588,43.52941,1.101948,17.12145,0.19,7.748826,164.5568,347.1,4.94295,5.377193,330,83,4620,0.97,1.108248,0.3515625,1.174616,-0.00390625,0,0,0,0,0,0,0,0,0,0,0,0,12.98,0,0,0,0,0,0,0,0,0,46,42,0,0,0,0,0,0,0,0,0,0,0,0,0,0,0,0,0,0,0,0,0,0,0,0,0,0,0,0,0,0,0,0,0,0,0,0,0,0,0,0,0,0,0,0,0,0,0,0,0,0,0,0,0,0,0,13,-0.05054692,0,16.0696,0.6201504,0.01002456,6.119008,0.7872085,0,0
125.003,32.3113,2.570336,30.33367,5.302567,-4.163773,-4.928497,57,56,-0.1623587,6.836698,37.28227,0.10205,132.9294,1.920092,-0.3807584,-0.2154396,0.5943258,-3.048939,-40.08979,-38.06322,4.112846,-21.802,100,1.16,1134.5,17,21,0,44.70588,43.52941,1.101948,17.12145,0.19,7.748826,164.5568,347.2,4.94295,5.377193,330,83,4620,0.97,1.108248,0.3515625,1.174616,-0.00390625,0,0,0,0,0,0,0,0,0,0,0,0,12.98,0,0,0,0,0,0,0,0,0,46,42,0,0,0,0,0,0,0,0,0,0,0,0,0,0,0,0,0,0,0,0,0,0,0,0,0,0,0,0,0,0,0,0,0,0,0,0,0,0,0,0,0,0,0,0,0,0,0,0,0,0,0,0,0,0,0,13,-0.05054692,0,16.0696,0.6201504,0.01002456,6.119008,0.7872085,0,0
126.003,33.55404,7.940718,30.34402,2.58696,-13.08768,-4.18338,57,56,0.2361305,16.10882,37.28227,0.1123965,395.4583,5.931874,-0.7837116,0.1835033,0.1566001,-7.505968,-39.28289,-33.69306,-4.049522,-19.72386,98.82353,1.45,1487.5,26,21,0,43.13726,41.96078,1.838092,28.06099,0.48,23.93899,173.9491,347.3,14.70502,5.378361,330,83,4620,0.97,1.421056,1.082031,1.196576,-0.00390625,0,0,0,0,0,0,0,0,0,0,0,0,12.98,0,0,0,0,0,0,0,0,0,46,42,0,0,0,0,0,0,0,0,0,0,0,0,0,0,0,0,0,0,0,0,0,0,0,0,0,0,0,0,0,0,0,0,0,0,0,0,0,0,0,0,0,0,0,0,0,0,0,0,0,0,0,0,0,0,0,13,-0.06635724,0,20.60531,0.6461457,0.01104091,6.468257,0.822179,0,0
127.003,33.55404,7.940718,30.34402,-1.589355,3.155151,-1.7146,57,56,0.2361305,16.10882,37.28227,0.1123965,395.4583,5.931874,0.0447522,0.2729915,0.8781546,-4.174322,-40.01549,-37.52535,0.07987976,-19.0391,98.82353,1.45,1487.5,26,21,0,43.13726,41.96078,1.838092,28.06099,0.48,23.93899,173.9491,347.3,14.70502,5.378361,330,83,4620,0.97,1.421056,1.082031,1.196576,-0.00390625,0,0,0,0,0,0,0,0,0,0,0,0,12.98,0,0,0,0,0,0,0,0,0,46,42,0,0,0,0,0,0,0,0,0,0,0,0,0,0,0,0,0,0,0,0,0,0,0,0,0,0,0,0,0,0,0,0,0,0,0,0,0,0,0,0,0,0,0,0,0,0,0,0,0,0,0,0,0,0,0,13,-0.06635724,0,20.60531,0.6461457,0.01104091,6.468257,0.822179,0,0
128.003,36.03953,6.21594,30.35376,-7.266357,0.5411377,1.915726,57,56,0.4237143,11.92826,37.28227,0.1221382,288.2129,4.64343,0.2537737,0.03567864,0.07999502,-4.84972,-38.04173,-36.23481,-0.6836624,-19.70151,90.19608,1.28,1572.5,26,21,0,42.35294,42.35294,1.144901,25.39874,0.31,18.73928,179.5825,347.5,10.71713,5.379217,330,83,4620,0.97,1.331752,0.9101563,1.36152,-0.00390625,0,0,0,0,0,0,0,0,0,0,0,0,12.98,0,0,0,0,0,0,0,0,0,46,42,0,0,0,0,0,0,0,0,0,0,0,0,0,0,0,0,0,0,0,0,0,0,0,0,0,0,0,0,0,0,0,0,0,0,0,0,0,0,0,0,0,0,0,0,0,0,0,0,0,0,0,0,0,0,0,13,-0.02882782,0,19.3104,0.6801231,0.01199786,6.677733,0.8512453,0,0
129.003,36.6609,5.54128,30.36094,3.281204,-2.537216,-13.52539,57,56,0.3434679,13.07376,37.28227,0.1293183,252.5764,4.139446,-0.4954146,-0.04065659,0.1142428,-5.852512,-39.90552,-37.22999,0.923851,-21.17438,87.05882,1.29,1279,26,21,0,41.56863,42.35294,1.057816,20.81957,0.32,16.70537,182.508,347.5,9.391993,5.37976,330,83,4620,0.97,1.273192,0.78125,1.226832,-0.00390625,0,0,0,0,0,0,0,0,0,0,0,0,12.98,0,0,0,0,0,0,0,0,0,46,42,0,0,0,0,0,0,0,0,0,0,0,0,0,0,0,0,0,0,0,0,0,0,0,0,0,0,0,0,0,0,0,0,0,0,0,0,0,0,0,0,0,0,0,0,0,0,0,0,0,0,0,0,0,0,0,13,-0.01282,0,18.46128,0.7085621,0.01270317,6.786519,0.8813069,0,0
130.003,36.6609,5.54128,30.36094,4.364746,-2.977051,-9.275742,57,56,0.3434679,13.07376,37.28227,0.1293183,252.5764,4.139446,-0.1882908,0.03487255,0.4370008,-5.085097,-39.53189,-37.8894,1.312988,-20.35706,87.05882,1.29,1279,26,21,0,41.56863,42.35294,1.057816,20.81957,0.32,16.70537,182.508,347.6,9.391993,5.37976,330,83,4620,0.97,1.273192,0.78125,1.226832,-0.00390625,0,0,0,0,0,0,0,0,0,0,0,0,12.98,0,0,0,0,0,0,0,0,0,46,42,0,0,0,0,0,0,0,0,0,0,0,0,0,0,0,0,0,0,0,0,0,0,0,0,0,0,0,0,0,0,0,0,0,0,0,0,0,0,0,0,0,0,0,0,0,0,0,0,0,0,0,0,0,0,0,13,-0.01282,0,18.46128,0.7085621,0.01270317,6.786519,0.8813069,0,0
131.003,37.90364,4.902616,30.36756,9.600693,0.6590118,-3.655579,57,56,0.2346258,11.16537,37.90364,0.135939,216.1388,3.662351,-0.1473421,-0.2960413,-1.334279,-4.259181,-37.80867,-37.26197,0.4843483,-19.98787,87.45098,1.26,1325,26,21,0,39.60784,39.60784,1.192128,21.06677,0.29,14.77998,183.9476,347.6,8.037069,5.380152,330,83,4620,0.97,1.35176,0.96875,1.316624,-0.00390625,0,0,0,0,0,0,0,0,0,0,0,0,12.98,0,0,0,0,0,0,0,0,0,46,42,0,0,0,0,0,0,0,0,0,0,0,0,0,0,0,0,0,0,0,0,0,0,0,0,0,0,0,0,0,0,0,0,0,0,0,0,0,0,0,0,0,0,0,0,0,0,0,0,0,0,0,0,0,0,0,13,0.01809734,0,19.60052,0.7390097,0.01335354,6.840047,0.9107561,0,0
132.003,37.90364,4.902616,30.36756,-8.072647,12.50671,11.64728,57,56,0.2346258,11.16537,37.90364,0.135939,216.1388,3.662351,-0.2006278,-0.127636,0.3635136,-4.897609,-38.79021,-36.98267,0.01676178,-19.62317,87.45098,1.26,1325,26,21,0,39.60784,39.60784,1.192128,21.06677,0.29,14.77998,183.9476,347.7,8.037069,5.380152,330,83,4620,0.97,1.35176,0.96875,1.316624,-0.00390625,0,0,0,0,0,0,0,0,0,0,0,0,12.98,0,0,0,0,0,0,0,0,0,46,42,0,0,0,0,0,0,0,0,0,0,0,0,0,0,0,0,0,0,0,0,0,0,0,0,0,0,0,0,0,0,0,0,0,0,0,0,0,0,0,0,0,0,0,0,0,0,0,0,0,0,0,0,0,0,0,13,0.01809734,0,19.60052,0.7390097,0.01335354,6.840047,0.9107561,0,0
133.003,38.52501,3.675607,30.37242,-1.783997,0.07929993,0.8881378,57,56,0.2328265,8.386765,38.52501,0.1407937,159.4307,2.745752,0.091034,-0.1239095,-0.4294483,-2.942899,-39.11013,-38.07032,5.396297,-23.11945,72.54902,1.14,1322.5,21,21,0,34.11765,34.5098,0.8588691,19.02445,0.17,11.0809,182.9483,347.7,5.928395,5.380229,330,83,4620,0.97,1.327848,0.890625,1.291736,-0.00390625,0,0,0,0,0,0,0,0,0,0,0,0,12.98,0,0,0,0,0,0,0,0,0,46,42,0,0,0,0,0,0,0,0,0,0,0,0,0,0,0,0,0,0,0,0,0,0,0,0,0,0,0,0,0,0,0,0,0,0,0,0,0,0,0,0,0,0,0,0,0,0,0,0,0,0,0,0,0,0,0,13,0.03374531,0,19.2538,0.769582,0.01383042,6.802888,0.9457661,0,0
134.003,38.52501,3.675607,30.37242,-1.197433,-5.833572,-14.43764,57,56,0.2328265,8.386765,38.52501,0.1407937,159.4307,2.745752,-0.748384,-0.08158486,0.006748123,-0.7427455,-38.33536,-38.21498,9.092735,-22.52895,72.54902,1.14,1322.5,21,21,0,34.11765,34.5098,0.8588691,19.02445,0.17,11.0809,182.9483,347.7,5.928395,5.380229,330,83,4620,0.97,1.327848,0.890625,1.291736,-0.00390625,0,0,0,0,0,0,0,0,0,0,0,0,12.98,0,0,0,0,0,0,0,0,0,46,42,0,0,0,0,0,0,0,0,0,0,0,0,0,0,0,0,0,0,0,0,0,0,0,0,0,0,0,0,0,0,0,0,0,0,0,0,0,0,0,0,0,0,0,0,0,0,0,0,0,0,0,0,0,0,0,13,0.03374531,0,19.2538,0.769582,0.01383042,6.802888,0.9457661,0,0
135.003,39.14639,2.78384,30.37679,2.070206,-0.3276367,10.57164,57,56,0.144397,6.340002,39.14639,0.145161,118.8333,2.079583,-0.1016815,-0.5578781,-0.100604,-1.49755,-36.50449,-37.13565,8.800692,-23.24823,76.86275,1.1,1325,21,21,0,33.72549,34.11765,0.7724587,18.70425,0.13,8.39248,180.0288,347.9,4.41879,5.380061,330,83,4620,0.97,1.32004,0.875,1.310768,-0.00390625,0,0,0,0,0,0,0,0,0,0,0,0,12.98,0,0,0,0,0,0,0,0,0,46,42,0,0,0,0,0,0,0,0,0,0,0,0,0,0,0,0,0,0,0,0,0,0,0,0,0,0,0,0,0,0,0,0,0,0,0,0,0,0,0,0,0,0,0,0,0,0,0,0,0,0,0,0,0,0,0,13,0.06242069,0,19.14058,0.8063211,0.01425943,6.694329,0.9748704,0,0
136.003,39.14639,2.78384,30.37679,21.30264,7.307465,7.374588,57,56,0.144397,6.340002,39.14639,0.145161,118.8333,2.079583,-0.7806494,-0.5086814,-0.06710757,-4.57749,-36.86559,-37.14093,5.218206,-24.08904,76.86275,1.1,1325,21,21,0,33.72549,34.11765,0.7724587,18.70425,0.13,8.39248,180.0288,348,4.41879,5.380061,330,83,4620,0.97,1.32004,0.875,1.310768,-0.00390625,0,0,0,0,0,0,0,0,0,0,0,0,12.98,0,0,0,0,0,0,0,0,0,46,42,0,0,0,0,0,0,0,0,0,0,0,0,0,0,0,0,0,0,0,0,0,0,0,0,0,0,0,0,0,0,0,0,0,0,0,0,0,0,0,0,0,0,0,0,0,0,0,0,0,0,0,0,0,0,0,13,0.06242069,0,19.14058,0.8063211,0.01425943,6.694329,0.9748704,0,0
137.003,39.14639,3.034854,30.38071,11.16453,1.056366,7.462631,57,56,0.06615716,6.890867,39.14639,0.1490888,129.5484,2.267096,-0.7049641,-0.6645818,-0.5447096,-5.694578,-36.10519,-36.11423,3.088245,-23.97417,72.94118,1.09,1329,21,21,0,33.33333,33.72549,0.7933491,18.59016,0.12,9.149217,178.1807,348.2,4.817225,5.379977,349,83,4620,0.97,1.264896,0.7421875,1.297592,-0.00390625,0,0,0,0,0,0,0,0,0,0,0,0,12.98,0,0,0,0,0,0,0,0,0,51,41,0,0,0,0,0,0,0,0,0,0,0,0,0,0,0,0,0,0,0,0,0,0,0,0,0,0,0,0,0,0,0,0,0,0,0,0,0,0,0,0,0,0,0,0,0,0,0,0,0,0,0,0,0,0,0,13,0.1104161,0,18.34099,0.8367281,0.01464527,6.625609,1.01227,0,0
138.003,39.14639,3.034854,30.38071,4.863098,-1.897766,-5.19841,57,56,0.06615716,6.890867,39.14639,0.1490888,129.5484,2.267096,0.0280097,0.01620661,0.4595937,-2.982825,-36.59785,-38.25014,7.235998,-25.0822,72.94118,1.09,1329,21,21,0,33.33333,33.72549,0.7933491,18.59016,0.12,9.149217,178.1807,348.3,4.817225,5.379977,349,83,4620,0.97,1.264896,0.7421875,1.297592,-0.00390625,0,0,0,0,0,0,0,0,0,0,0,0,12.98,0,0,0,0,0,0,0,0,0,51,41,0,0,0,0,0,0,0,0,0,0,0,0,0,0,0,0,0,0,0,0,0,0,0,0,0,0,0,0,0,0,0,0,0,0,0,0,0,0,0,0,0,0,0,0,0,0,0,0,0,0,0,0,0,0,0,13,0.1104161,0,18.34099,0.8367281,0.01464527,6.625609,1.01227,0,0
139.003,39.14639,3.432961,30.38649,-5.394867,4.659271,-0.4493866,57,56,9.436896E-16,7.725046,39.14639,0.154863,146.5423,2.56449,0.5937474,0.3042831,-0.1922699,-2.935465,-35.58572,-39.28313,6.264702,-24.56738,76.86275,1.18,1341,21,21,0,36.47059,36.47059,0.9428212,20.30685,0.21,10.34939,176.7612,348.4,5.44914,5.379991,349,83,4620,0.97,1.335656,0.9179688,1.280512,-0.00390625,0,0,0,0,0,0,0,0,0,0,0,0,12.98,0,0,0,0,0,0,0,0,0,51,41,0,0,0,0,0,0,0,0,0,0,0,0,0,0,0,0,0,0,0,0,0,0,0,0,0,0,0,0,0,0,0,0,0,0,0,0,0,0,0,0,0,0,0,0,0,0,0,0,0,0,0,0,0,0,0,13,0.1280757,0,19.36701,0.8761144,0.01521248,6.572823,1.041261,0,0
140.003,39.14639,3.432961,30.38649,4.317673,5.077393,-2.616333,57,56,9.436896E-16,7.725046,39.14639,0.154863,146.5423,2.56449,-0.5475264,0.5717094,-0.104595,-2.913283,-36.10056,-39.41336,7.728315,-25.76648,76.86275,1.18,1341,21,21,0,36.47059,36.47059,0.9428212,20.30685,0.21,10.34939,176.7612,348.6,5.44914,5.379991,349,83,4620,0.97,1.335656,0.9179688,1.280512,-0.00390625,0,0,0,0,0,0,0,0,0,0,0,0,12.98,0,0,0,0,0,0,0,0,0,51,41,0,0,0,0,0,0,0,0,0,0,0,0,0,0,0,0,0,0,0,0,0,0,0,0,0,0,0,0,0,0,0,0,0,0,0,0,0,0,0,0,0,0,0,0,0,0,0,0,0,0,0,0,0,0,0,13,0.1280757,0,19.36701,0.8761144,0.01521248,6.572823,1.041261,0,0
141.003,39.76776,3.885243,30.39153,-5.544052,4.941528,6.554459,57,56,0.07985874,8.6429,39.76776,0.1599103,163.2574,2.902354,0.1163217,-0.3678655,0.2560864,-1.676138,-37.80334,-40.22797,11.46944,-26.26353,90.58823,1.22,1356.5,22,21,0,43.13726,42.7451,1.003533,21.23789,0.25,11.7129,176.3004,348.6,6.070688,5.380092,349,83,4620,0.97,1.248792,0.7460938,1.294664,-0.00390625,0,0,0,0,0,0,0,0,0,0,0,0,12.98,0,0,0,0,0,0,0,0,0,51,41,0,0,0,0,0,0,0,0,0,0,0,0,0,0,0,0,0,0,0,0,0,0,0,0,0,0,0,0,0,0,0,0,0,0,0,0,0,0,0,0,0,0,0,0,0,0,0,0,0,0,0,0,0,0,0,13,0.1916882,0,18.10748,0.9070331,0.01570828,6.555687,1.076884,0,0
142.003,39.76776,3.885243,30.39153,2.762665,-2.453018,5.651108,57,56,0.07985874,8.6429,39.76776,0.1599103,163.2574,2.902354,-0.001864666,-0.4971392,-0.3502992,-3.548567,-37.42224,-39.40067,9.744568,-28.04524,90.58823,1.22,1356.5,22,21,0,43.13726,42.7451,1.003533,21.23789,0.25,11.7129,176.3004,348.7,6.070688,5.380092,349,83,4620,0.97,1.248792,0.7460938,1.294664,-0.00390625,0,0,0,0,0,0,0,0,0,0,0,0,12.98,0,0,0,0,0,0,0,0,0,51,41,0,0,0,0,0,0,0,0,0,0,0,0,0,0,0,0,0,0,0,0,0,0,0,0,0,0,0,0,0,0,0,0,0,0,0,0,0,0,0,0,0,0,0,0,0,0,0,0,0,0,0,0,0,0,0,13,0.1916882,0,18.10748,0.9070331,0.01570828,6.555687,1.076884,0,0
143.003,40.38913,5.875591,30.40092,7.516571,-1.262543,0.8026428,57,56,0.1450907,12.64182,40.38913,0.1693002,243.0932,4.389183,0.4269919,-0.03177995,0.2905567,-3.456158,-38.50822,-40.58892,9.351828,-26.26453,82.74509,1.31,1402.5,22,21,0,42.35294,42.35294,1.277298,23.49806,0.34,17.71322,179.0634,349,9.039364,5.38077,349,83,4620,0.97,1.58112,1.363281,1.570384,-0.00390625,0,0,0,0,0,0,0,0,0,0,0,0,12.98,0,0,0,0,0,0,0,0,0,51,41,0,0,0,0,0,0,0,4,0,0,0,0,0,0,0,0,0,0,0,0,0,0,0,0,0,0,0,0,0,0,0,0,0,0,0,0,0,0,0,0,0,0,0,0,0,0,0,0,0,0,0,0,0,0,0,13,0.1895656,0,22.92624,0.9454762,0.01663067,6.65843,1.105524,0,0
144.003,40.38913,5.875591,30.40092,1.278778,4.624374,-8.325134,57,56,0.1450907,12.64182,40.38913,0.1693002,243.0932,4.389183,0.5689417,0.04579623,0.8959407,-2.05053,-39.54386,-41.74407,12.36007,-26.94257,82.74509,1.31,1402.5,22,21,0,42.35294,42.35294,1.277298,23.49806,0.34,17.71322,179.0634,349.2,9.039364,5.38077,349,83,4620,0.97,1.58112,1.363281,1.570384,-0.00390625,0,0,0,0,0,0,0,0,0,0,0,0,12.98,0,0,0,0,0,0,0,0,0,51,41,0,0,0,0,0,0,0,4,0,0,0,0,0,0,0,0,0,0,0,0,0,0,0,0,0,0,0,0,0,0,0,0,0,0,0,0,0,0,0,0,0,0,0,0,0,0,0,0,0,0,0,0,0,0,0,13,0.1895656,0,22.92624,0.9454762,0.01663067,6.65843,1.105524,0,0
145.003,41.63187,6.388915,30.40918,-13.29425,2.518784,2.411987,57,56,0.2247778,13.51975,41.63187,0.1775601,256.4407,4.772645,0.1167239,0.08877095,-0.3233724,-2.787974,-38.37678,-39.93948,13.73414,-29.19084,46.27451,1.33,1426,22,21,0,41.17647,41.56863,1.470666,24.25655,0.36,19.26075,181.5768,349.3,9.535686,5.381402,349,83,4620,0.97,0.920368,-0.5585938,0.85888,-0.00390625,0,0,0,0,0,0,0,0,0,0,0,0,12.98,0,0,0,0,0,0,0,0,0,51,41,0,0,0,0,0,0,0,4,0,0,0,0,0,0,0,0,0,0,0,0,0,0,0,0,0,0,0,0,0,0,0,0,0,0,0,0,0,0,0,0,0,0,0,0,0,0,0,0,0,0,0,0,0,0,0,13,0.1894176,0,13.34534,0.9778792,0.01744206,6.751889,1.135511,0,0
146.003,42.25324,3.065042,30.41332,-0.6482697,1.053024,12.87349,57,56,0.2365274,6.434126,42.25324,0.1816923,121.2166,2.289647,0.6844169,-0.644266,-1.010385,-2.995383,-37.37881,-38.89215,14.35335,-30.33124,44.70588,1.09,1437.5,22,21,0,37.64706,38.03922,1.240816,20.03974,0.12,9.240223,179.5453,349.4,4.507411,5.38126,349,83,4620,0.97,0.955992,-0.3554688,0.931592,-0.00390625,0,0,0,0,0,0,0,0,0,0,0,0,12.98,0,0,0,0,0,0,0,0,0,51,41,0,0,0,0,0,0,0,4,0,0,0,0,0,0,0,0,0,0,0,0,0,0,0,0,0,0,0,0,0,0,0,0,0,0,0,0,0,0,0,0,0,0,0,0,0,0,0,0,0,0,0,0,0,0,0,13,0.1521282,0,13.86188,1.011958,0.01784797,6.67635,1.164514,0,0
147.003,42.25324,3.065042,30.41332,-6.126694,3.40799,-0.5500641,57,56,0.2365274,6.434126,42.25324,0.1816923,121.2166,2.289647,-0.08850436,-0.04488855,0.3533483,-4.141304,-37.17889,-39.67604,11.63992,-30.37976,44.70588,1.09,1437.5,22,21,0,37.64706,38.03922,1.240816,20.03974,0.12,9.240223,179.5453,349.5,4.507411,5.38126,349,83,4620,0.97,0.955992,-0.3554688,0.931592,-0.00390625,0,0,0,0,0,0,0,0,0,0,0,0,12.98,0,0,0,0,0,0,0,0,0,51,41,0,0,0,0,0,0,0,4,0,0,0,0,0,0,0,0,0,0,0,0,0,0,0,0,0,0,0,0,0,0,0,0,0,0,0,0,0,0,0,0,0,0,0,0,0,0,0,0,0,0,0,0,0,0,0,13,0.1521282,0,13.86188,1.011958,0.01784797,6.67635,1.164514,0,0
148.003,42.25324,2.503166,30.41657,7.319076,0.1572876,3.731446,57,56,0.07698152,6.358201,42.25324,0.1849511,98.99548,1.869915,0.1890084,0.2162774,-0.7791216,-4.515851,-37.88649,-39.45341,12.62521,-30.76543,49.01961,1.14,1188,22,21,0,35.29412,35.68628,1.040517,17.32125,0.17,7.546328,177.0427,349.6,3.681124,5.380999,349,83,4620,0.97,1.655784,1.464844,1.667008,-0.00390625,0,0,0,0,0,0,0,0,0,0,0,0,12.98,0,0,0,0,0,0,0,0,0,51,41,0,0,0,0,0,0,0,0,0,0,0,0,0,0,0,0,0,0,0,0,0,0,0,0,0,0,0,0,0,0,0,0,0,0,0,0,0,0,0,0,0,0,0,0,0,0,0,0,0,0,0,0,0,0,0,13,0.1361203,0,24.00887,1.044669,0.01816808,6.583291,1.199472,0,0
149.003,42.25324,2.503166,30.41657,-6.606094,3.888031,-10.22249,57,56,0.07698152,6.358201,42.25324,0.1849511,98.99548,1.869915,-0.2958553,-0.03724231,-0.8003991,-7.501375,-37.06339,-37.39703,9.655117,-31.51013,49.01961,1.14,1188,22,21,0,35.29412,35.68628,1.040517,17.32125,0.17,7.546328,177.0427,349.7,3.681124,5.380999,349,83,4620,0.97,1.655784,1.464844,1.667008,-0.00390625,0,0,0,0,0,0,0,0,0,0,0,0,12.98,0,0,0,0,0,0,0,0,0,51,41,0,0,0,0,0,0,0,0,0,0,0,0,0,0,0,0,0,0,0,0,0,0,0,0,0,0,0,0,0,0,0,0,0,0,0,0,0,0,0,0,0,0,0,0,0,0,0,0,0,0,0,0,0,0,0,13,0.1361203,0,24.00887,1.044669,0.01816808,6.583291,1.199472,0,0
150.003,42.87461,1.968493,30.41965,5.89357,3.797623,-9.466583,57,56,0.06596246,4.995893,42.87461,0.188031,76.72192,1.470504,-0.01655612,-0.2760547,-0.6727887,-8.35721,-37.53175,-38.23367,10.83107,-31.15413,74.11765,1.15,1189,22,21,0,34.5098,33.33333,0.9029836,17.48789,0.18,5.934443,173.2963,349.8,2.852887,5.380511,349,83,4620,0.97,1.45912,1.152344,1.38104,-0.00390625,0,0,0,0,0,0,0,0,0,0,0,0,12.98,0,0,0,0,0,0,0,0,0,51,41,0,0,0,0,0,0,0,0,0,0,0,0,0,0,0,0,0,0,0,0,0,0,0,0,0,0,0,0,0,0,0,0,0,0,0,0,0,0,0,0,0,0,0,0,0,0,0,0,0,0,0,0,0,0,0,13,0.1183955,0,21.15724,1.085026,0.01847063,6.443982,1.22854,0,0
151.003,42.87461,1.968493,30.41965,-0.4629517,5.17511,3.042297,57,56,0.06596246,4.995893,42.87461,0.188031,76.72192,1.470504,0.9353786,-0.3037505,-0.2122534,-6.890794,-37.84019,-38.77471,11.05731,-30.78693,74.11765,1.15,1189,22,21,0,34.5098,33.33333,0.9029836,17.48789,0.18,5.934443,173.2963,349.9,2.852887,5.380511,349,83,4620,0.97,1.45912,1.152344,1.38104,-0.00390625,0,0,0,0,0,0,0,0,0,0,0,0,12.98,0,0,0,0,0,0,0,0,0,51,41,0,0,0,0,0,0,0,0,0,0,0,0,0,0,0,0,0,0,0,0,0,0,0,0,0,0,0,0,0,0,0,0,0,0,0,0,0,0,0,0,0,0,0,0,0,0,0,0,0,0,0,0,0,0,0,13,0.1183955,0,21.15724,1.085026,0.01847063,6.443982,1.22854,0,0
152.003,42.87461,2.692176,30.42316,11.79997,5.408279,-6.019318,57,56,0.06596246,6.870103,42.87461,0.1915352,104.9274,2.011109,0.03719736,0.3063144,1.048538,-9.386768,-39.45128,-37.10251,5.284458,-28.25351,72.94118,1.07,1182.5,22,21,0,30.58824,31.37255,0.8160788,16.18239,0.1,8.116138,171.2526,349.9,3.901701,5.380276,349,83,4620,0.97,1.4518,1.136719,1.475712,-0.00390625,0,0,0,0,0,0,0,0,0,0,0,0,12.98,0,0,0,0,0,0,0,0,0,51,41,0,0,0,0,0,0,0,0,0,0,0,0,0,0,0,0,0,0,0,0,0,0,0,0,0,0,0,0,0,0,0,0,0,0,0,0,0,0,0,0,0,0,0,0,0,0,0,0,0,0,0,0,0,0,0,13,0.1027475,0,21.0511,1.118437,0.01881485,6.367989,1.25901,0,0
153.003,42.87461,2.692176,30.42316,19.78081,44.1282,10.08167,57,56,0.06596246,6.870103,42.87461,0.1915352,104.9274,2.011109,1.395716,0.1490893,0.223308,2.746653,-34.51866,-37.41272,21.243,-34.16725,72.94118,1.07,1182.5,22,21,0,30.58824,31.37255,0.8160788,16.18239,0.1,8.116138,171.2526,349.9,3.901701,5.380276,349,83,4620,0.97,1.4518,1.136719,1.475712,-0.00390625,0,0,0,0,0,0,0,0,0,0,0,0,12.98,0,0,0,0,0,0,0,0,0,51,41,0,0,0,0,0,0,0,0,0,0,0,0,0,0,0,0,0,0,0,0,0,0,0,0,0,0,0,0,0,0,0,0,0,0,0,0,0,0,0,0,0,0,0,0,0,0,0,0,0,0,0,0,0,0,0,13,0.1027475,0,21.0511,1.118437,0.01881485,6.367989,1.25901,0,0
154.003,42.25324,2.625959,30.42675,0.7103577,-12.13548,4.046875,57,56,-0.07599896,6.755397,42.87461,0.1951213,103.8517,1.961643,-0.02653468,0.1741797,0.3913963,-6.087828,-37.79638,-42.34883,16.52349,-32.91466,65.09804,1.06,1173,22,21,0,30.19608,30.19608,0.8132914,15.90236,0.09,7.916513,169.2356,350,3.861701,5.380027,349,83,4620,0.97,1.588928,1.355469,1.692872,-0.00390625,0,0,0,0,0,0,0,0,0,0,0,0,12.98,0,0,0,0,0,0,0,0,0,51,41,0,0,0,0,0,0,0,0,0,0,0,0,0,0,0,0,0,0,0,0,0,0,0,0,0,0,0,0,0,0,0,0,0,0,0,0,0,0,0,0,0,0,0,0,0,0,0,0,0,0,0,0,0,0,0,13,0.07431631,0,23.03946,1.152956,0.01916712,6.292987,1.288069,0,0
155.003,42.25324,2.625959,30.42675,6.210724,2.992371,-0.3385315,57,56,-0.07599896,6.755397,42.87461,0.1951213,103.8517,1.961643,-0.372078,0.2368383,0.4356323,-6.750753,-36.82705,-39.23688,17.25805,-35.28209,65.09804,1.06,1173,22,21,0,30.19608,30.19608,0.8132914,15.90236,0.09,7.916513,169.2356,350.1,3.861701,5.380027,349,83,4620,0.97,1.588928,1.355469,1.692872,-0.00390625,0,0,0,0,0,0,0,0,0,0,0,0,12.98,0,0,0,0,0,0,0,0,0,51,41,0,0,0,0,0,0,0,0,0,0,0,0,0,0,0,0,0,0,0,0,0,0,0,0,0,0,0,0,0,0,0,0,0,0,0,0,0,0,0,0,0,0,0,0,0,0,0,0,0,0,0,0,0,0,0,13,0.07431631,0,23.03946,1.152956,0.01916712,6.292987,1.288069,0,0
156.003,42.25324,2.625959,30.42675,14.16037,10.836,-18.36699,57,56,-0.07599896,6.755397,42.87461,0.1951213,103.8517,1.961643,-1.371453,-0.2613865,-1.210436,-10.82917,-33.69118,-35.60749,12.6483,-38.0005,65.09804,1.06,1173,22,21,0,30.19608,30.19608,0.8132914,15.90236,0.09,7.916513,169.2356,350,3.861701,5.380027,349,83,4620,0.97,1.588928,1.355469,1.692872,-0.00390625,0,0,0,0,0,0,0,0,0,0,0,0,12.98,0,0,0,0,0,0,0,0,0,51,41,0,0,0,0,0,0,0,0,0,0,0,0,0,0,0,0,0,0,0,0,0,0,0,0,0,0,0,0,0,0,0,0,0,0,0,0,0,0,0,0,0,0,0,0,0,0,0,0,0,0,0,0,0,0,0,13,0.07431631,0,23.03946,1.152956,0.01916712,6.292987,1.288069,0,0
157.003,42.25324,2.295963,30.42974,-9.92572,-15.28776,15.60285,57,59,-0.07599896,5.931754,42.87461,0.1981174,90.80101,1.71513,0.5540193,0.03974157,0.8851604,-4.999614,-36.49083,-38.67209,19.3119,-35.4924,57.2549,1.07,1168,20,21,0,28.62745,28.62745,0.803214,15.98396,0.1,6.921672,167.0876,350.1,3.376414,5.379719,369,83,4621,0.97,1.645048,1.429688,1.692872,-0.00390625,0,0,0,0,0,0,0,0,0,0,0,0,12.98,0,0,0,0,0,0,0,0,0,50,41,0,0,0,0,0,0,0,0,0,0,0,0,0,0,0,0,0,0,0,0,0,0,0,0,0,0,0,0,0,0,0,0,0,0,0,0,0,0,0,0,0,0,0,0,0,0,0,0,0,0,0,0,0,0,0,13,0.07431631,0,23.8532,1.185709,0.01946143,6.213114,1.341728,0,0
158.003,42.25324,2.295963,30.42974,-18.17871,-5.580399,0.2693787,57,59,-0.07599896,5.931754,42.87461,0.1981174,90.80101,1.71513,0.3375549,-0.2904746,-1.00308,-5.774247,-36.2802,-38.05563,18.47702,-36.33665,57.2549,1.07,1168,20,21,0,28.62745,28.62745,0.803214,15.98396,0.1,6.921672,167.0876,350.1,3.376414,5.379719,369,83,4621,0.97,1.645048,1.429688,1.692872,-0.00390625,0,0,0,0,0,0,0,0,0,0,0,0,12.98,0,0,0,0,0,0,0,0,0,50,41,0,0,0,0,0,0,0,0,0,0,0,0,0,0,0,0,0,0,0,0,0,0,0,0,0,0,0,0,0,0,0,0,0,0,0,0,0,0,0,0,0,0,0,0,0,0,0,0,0,0,0,0,0,0,0,13,0.07431631,0,23.8532,1.185709,0.01946143,6.213114,1.341728,0,0
159.003,42.25324,1.967391,30.43445,3.188583,-8.420044,-3.219772,57,59,9.575674E-16,5.131194,42.87461,0.2028236,77.80661,1.46968,0.2189082,-0.3759029,-0.2313389,-7.890087,-35.29797,-36.63771,15.86917,-35.96761,60,1.06,1157,20,21,0,30.19608,30.19608,0.7805749,15.79246,0.09,5.931121,162.7211,350.1,2.89322,5.378997,369,83,4621,0.97,1.494256,1.195313,1.506456,-0.00390625,0,0,0,0,0,0,0,0,0,0,0,0,12.98,0,0,0,0,0,0,0,0,0,50,41,0,0,0,0,0,0,0,0,0,0,0,0,0,0,0,0,0,0,0,0,0,0,0,0,0,0,0,0,0,0,0,0,0,0,0,0,0,0,0,0,0,0,0,0,0,0,0,0,0,0,0,0,0,0,0,13,0.07431631,0,21.66671,1.24645,0.01992373,6.050745,1.370794,0,0
160.003,42.25324,1.967391,30.43445,3.181274,3.954956,-1.827042,57,59,9.575674E-16,5.131194,42.87461,0.2028236,77.80661,1.46968,-0.484438,-0.2024798,-0.2564317,-12.16943,-33.42275,-35.05371,10.04874,-36.85164,60,1.06,1157,20,21,0,30.19608,30.19608,0.7805749,15.79246,0.09,5.931121,162.7211,350,2.89322,5.378997,369,83,4621,0.97,1.494256,1.195313,1.506456,-0.00390625,0,0,0,0,0,0,0,0,0,0,0,0,12.98,0,0,0,0,0,0,0,0,0,50,41,0,0,0,0,0,0,0,0,0,0,0,0,0,0,0,0,0,0,0,0,0,0,0,0,0,0,0,0,0,0,0,0,0,0,0,0,0,0,0,0,0,0,0,0,0,0,0,0,0,0,0,0,0,0,0,13,0.07431631,0,21.66671,1.24645,0.01992373,6.050745,1.370794,0,0
161.003,41.63187,2.491975,30.4377,3.968048,9.498169,-12.08022,57,59,-0.08013506,6.410717,42.87461,0.2060748,100.0238,1.861555,-0.2089801,0.02925159,-1.099315,-11.86967,-32.7854,-35.08308,9.318638,-36.74461,83.92157,1.12,1173,20,21,0,36.47059,36.86274,0.9524416,16.91713,0.15,7.51259,161.1588,350.1,3.719362,5.378747,369,83,4621,0.97,1.323456,0.8867188,1.323944,-0.00390625,0,0,0,0,0,0,0,0,0,0,0,0,12.98,0,0,0,0,0,0,0,0,0,50,41,0,0,0,0,0,0,0,0,0,0,0,0,0,0,0,0,0,0,0,0,0,0,0,0,0,0,0,0,0,0,0,0,0,0,0,0,0,0,0,0,0,0,0,0,0,0,0,0,0,0,0,0,0,0,0,13,0.04231755,0,19.19011,1.278706,0.0202431,5.992653,1.400696,0,0
162.003,42.25324,3.69675,30.44267,1.558517,-10.07719,-0.972824,57,59,-0.003068945,9.397891,42.87461,0.2110477,146.1995,2.761546,-0.4145343,0.5360883,-0.1327094,-10.00323,-33.25472,-35.45315,11.50994,-37.41209,81.17647,1.17,1187,20,21,0,37.2549,37.64706,0.9963864,17.88328,0.2,11.14464,160.7679,350.2,5.436393,5.378756,369,83,4621,0.97,1.30784,0.8554688,1.306376,-0.00390625,0,0,0,0,0,0,0,0,0,0,0,0,12.98,0,0,0,0,0,0,0,0,0,50,41,0,0,0,0,0,0,0,0,0,0,0,0,0,0,0,0,0,0,0,0,0,0,0,0,0,0,0,0,0,0,0,0,0,0,0,0,0,0,0,0,0,0,0,0,0,0,0,0,0,0,0,0,0,0,0,13,0.04468439,0,18.96368,1.312748,0.0207316,5.978117,1.42978,0,0
163.003,42.25324,3.69675,30.44267,-9.83728,-10.56219,4.03804,57,59,-0.003068945,9.397891,42.87461,0.2110477,146.1995,2.761546,0.09378266,0.5831677,0.7499919,-8.032061,-34.67471,-36.66383,14.267,-36.82854,81.17647,1.17,1187,20,21,0,37.2549,37.64706,0.9963864,17.88328,0.2,11.14464,160.7679,350.2,5.436393,5.378756,369,83,4621,0.97,1.30784,0.8554688,1.306376,-0.00390625,0,0,0,0,0,0,0,0,0,0,0,0,12.98,0,0,0,0,0,0,0,0,0,50,41,0,0,0,0,0,0,0,0,0,0,0,0,0,0,0,0,0,0,0,0,0,0,0,0,0,0,0,0,0,0,0,0,0,0,0,0,0,0,0,0,0,0,0,0,0,0,0,0,0,0,0,0,0,0,0,13,0.04468439,0,18.96368,1.312748,0.0207316,5.978117,1.42978,0,0
164.003,42.87461,3.687499,30.44747,-5.940109,-4.220322,2.369278,57,59,0.1568658,9.327225,42.87461,0.2158411,143.7201,2.754635,0.4597705,0.2987365,0.6445247,-6.228543,-34.4267,-38.25142,15.06136,-37.19092,76.47059,1.17,1193,21,21,0,33.72549,33.72549,1.015384,17.97368,0.2,11.11675,160.3447,350.3,5.344197,5.37875,369,83,4621,0.97,1.482056,1.1875,1.548424,-0.00390625,0,0,0,0,0,0,0,0,0,0,0,0,12.98,0,0,0,0,0,0,0,0,0,50,41,0,0,0,0,0,0,0,0,0,0,0,0,0,0,0,0,0,0,0,0,0,0,0,0,0,0,0,0,0,0,0,0,0,0,0,0,0,0,0,0,0,0,0,0,0,0,0,0,0,0,0,0,0,0,0,13,0.02873516,0,21.48981,1.346107,0.02120247,5.962381,1.46477,0,0
165.003,42.87461,3.687499,30.44747,1.268097,-15.33386,-5.755249,57,59,0.1568658,9.327225,42.87461,0.2158411,143.7201,2.754635,-0.6279006,-0.7505189,0.7474361,-8.597078,-34.16089,-36.91539,12.60475,-36.95528,76.47059,1.17,1193,21,21,0,33.72549,33.72549,1.015384,17.97368,0.2,11.11675,160.3447,350.4,5.344197,5.37875,369,83,4621,0.97,1.482056,1.1875,1.548424,-0.00390625,0,0,0,0,0,0,0,0,0,0,0,0,12.98,0,0,0,0,0,0,0,0,0,50,41,0,0,0,0,0,0,0,0,0,0,0,0,0,0,0,0,0,0,0,0,0,0,0,0,0,0,0,0,0,0,0,0,0,0,0,0,0,0,0,0,0,0,0,0,0,0,0,0,0,0,0,0,0,0,0,13,0.02873516,0,21.48981,1.346107,0.02120247,5.962381,1.46477,0,0
166.003,42.87461,2.791071,30.45184,-12.95111,-1.210098,-3.594315,57,59,0.0797997,7.143616,42.87461,0.2202142,108.7818,2.084985,-0.09294797,0.02191518,-1.224585,-8.458719,-34.38132,-37.8341,12.88771,-36.73672,61.96078,1.09,1179,21,21,0,30.58824,30.58824,0.814506,16.49195,0.12,8.41428,158.8258,350.5,4.045027,5.37849,369,83,4621,0.97,1.600152,1.363281,1.70556,-0.00390625,0,0,0,0,0,0,0,0,0,0,0,0,12.98,0,0,0,0,0,0,0,0,0,50,41,0,0,0,0,0,0,0,0,0,0,0,0,0,0,0,0,0,0,0,0,0,0,0,0,0,0,0,0,0,0,0,0,0,0,0,0,0,0,0,0,0,0,0,0,0,0,0,0,0,0,0,0,0,0,0,13,0.01333885,0,23.2022,1.386514,0.02163204,5.905899,1.493812,0,0
167.003,42.87461,2.791071,30.45184,-6.868195,-2.960815,-1.358566,57,59,0.0797997,7.143616,42.87461,0.2202142,108.7818,2.084985,0.7731025,-0.5255234,-1.263225,-5.918369,-35.01881,-39.04822,15.39862,-36.90941,61.96078,1.09,1179,21,21,0,30.58824,30.58824,0.814506,16.49195,0.12,8.41428,158.8258,350.5,4.045027,5.37849,369,83,4621,0.97,1.600152,1.363281,1.70556,-0.00390625,0,0,0,0,0,0,0,0,0,0,0,0,12.98,0,0,0,0,0,0,0,0,0,50,41,0,0,0,0,0,0,0,0,0,0,0,0,0,0,0,0,0,0,0,0,0,0,0,0,0,0,0,0,0,0,0,0,0,0,0,0,0,0,0,0,0,0,0,0,0,0,0,0,0,0,0,0,0,0,0,13,0.01333885,0,23.2022,1.386514,0.02163204,5.905899,1.493812,0,0
168.003,42.25324,2.216145,30.45472,0.8325348,-2.401047,-3.51091,57,59,-0.08028009,5.703564,42.87461,0.2230968,87.64433,1.655504,0.6741515,-0.4123107,-1.307374,-8.541221,-32.82205,-36.34968,11.88129,-36.92493,59.60784,1.06,1172.5,21,21,0,29.80392,29.80392,0.8076546,15.94962,0.09,6.681041,157.1998,350.5,3.259034,5.378165,369,83,4621,0.97,1.580144,1.339844,1.645536,-0.00390625,0,0,0,0,0,0,0,0,0,0,0,0,12.98,0,0,0,0,0,0,0,0,0,50,41,0,0,0,0,0,0,0,0,0,0,0,0,0,0,0,0,0,0,0,0,0,0,0,0,0,0,0,0,0,0,0,0,0,0,0,0,0,0,0,0,0,0,0,0,0,0,0,0,0,0,0,0,0,0,0,13,-0.002717164,0,22.91209,1.419193,0.0219152,5.845437,1.52388,0,0
169.003,42.25324,2.216145,30.45472,-14.95714,6.440582,10.9621,57,59,-0.08028009,5.703564,42.87461,0.2230968,87.64433,1.655504,-0.1512815,0.7468418,0.7795885,-7.091561,-34.20099,-37.68589,13.37114,-36.68968,59.60784,1.06,1172.5,21,21,0,29.80392,29.80392,0.8076546,15.94962,0.09,6.681041,157.1998,350.5,3.259034,5.378165,369,83,4621,0.97,1.580144,1.339844,1.645536,-0.00390625,0,0,0,0,0,0,0,0,0,0,0,0,12.98,0,0,0,0,0,0,0,0,0,50,41,0,0,0,0,0,0,0,0,0,0,0,0,0,0,0,0,0,0,0,0,0,0,0,0,0,0,0,0,0,0,0,0,0,0,0,0,0,0,0,0,0,0,0,0,0,0,0,0,0,0,0,0,0,0,0,13,-0.002717164,0,22.91209,1.419193,0.0219152,5.845437,1.52388,0,0
170.003,42.25324,2.053477,30.45748,-2.132339,3.178177,-8.176315,57,59,-0.08028009,5.328085,42.87461,0.225851,81.21114,1.533988,-0.02914881,0.02477551,-0.2700545,-8.841865,-33.90418,-36.34125,11.62122,-36.92828,58.03922,1.05,1163,21,21,0,27.45098,26.66667,0.7822254,15.67115,0.08,6.190645,155.404,350.5,3.019817,5.377779,369,83,4621,0.97,1.769,1.609375,2.036424,-0.00390625,0,0,0,0,0,0,0,0,0,0,0,0,12.98,0,0,0,0,0,0,0,0,0,50,41,0,0,0,0,0,0,0,0,0,0,0,0,0,0,0,0,0,0,0,0,0,0,0,0,0,0,0,0,0,0,0,0,0,0,0,0,0,0,0,0,0,0,0,0,0,0,0,0,0,0,0,0,0,0,0,13,-0.01590966,0,25.6505,1.453315,0.02218576,5.778661,1.552586,0,0
171.003,42.25324,2.053477,30.45748,5.6492,4.368347,-7.996201,57,59,-0.08028009,5.328085,42.87461,0.225851,81.21114,1.533988,-0.6598974,0.1650924,0.1931161,-8.662941,-34.53713,-37.45035,12.27261,-35.73969,58.03922,1.05,1163,21,21,0,27.45098,26.66667,0.7822254,15.67115,0.08,6.190645,155.404,350.6,3.019817,5.377779,369,83,4621,0.97,1.769,1.609375,2.036424,-0.00390625,0,0,0,0,0,0,0,0,0,0,0,0,12.98,0,0,0,0,0,0,0,0,0,50,41,0,0,0,0,0,0,0,0,0,0,0,0,0,0,0,0,0,0,0,0,0,0,0,0,0,0,0,0,0,0,0,0,0,0,0,0,0,0,0,0,0,0,0,0,0,0,0,0,0,0,0,0,0,0,0,13,-0.01590966,0,25.6505,1.453315,0.02218576,5.778661,1.552586,0,0
172.003,41.63187,1.386187,30.45928,-8.026825,-0.9199982,-4.318481,57,59,-0.07967576,3.716526,42.87461,0.2276557,55.63928,1.035509,0.4233606,-0.06454264,-0.6718121,-8.94001,-34.40197,-36.79145,11.65617,-36.17595,5.882353,1.02,1125.5,18,21,0,16.47059,16.07843,0.5467373,14.73253,0.05,4.178956,153.2253,350.6,2.068934,5.37727,369,83,4621,0.97,12.44254,3.546875,15.9903,-0.00390625,0,0,0,0,0,0,0,0,0,0,0,0,12.98,0,0,0,0,0,0,0,0,0,50,41,0,0,0,0,0,0,0,0,0,0,0,0,0,0,0,0,0,0,0,0,0,0,0,0,0,0,0,0,0,0,0,0,0,0,0,0,0,0,0,0,0,0,0,0,0,0,0,0,0,0,0,0,0,0,0,15,-0.03184481,0,180.4168,1.485758,0.02236304,5.697648,1.587957,0,0
173.003,40.38913,1.386187,30.45928,3.237839,1.820435,1.275177,57,59,-0.212223,3.716526,42.87461,0.2276557,55.63928,1.035509,-0.6897609,1.247357,0.8182963,-8.314116,-34.91853,-37.56147,12.10332,-35.88914,5.882353,1.02,1125.5,18,21,0,16.47059,16.07843,0.5467373,14.73253,0.05,4.178956,153.2253,350.6,2.068934,5.37727,369,83,4621,0.97,12.44254,3.546875,15.9903,-0.00390625,0,0,0,0,0,0,0,0,0,0,0,0,12.98,0,0,0,0,0,0,0,0,0,50,41,0,0,0,0,0,0,0,0,0,0,0,0,0,0,0,0,0,0,0,0,0,0,0,0,0,0,0,0,0,0,0,0,0,0,0,0,0,0,0,0,0,0,0,0,0,0,0,0,0,0,0,0,0,0,0,15,-0.04315446,0,180.4168,1.523597,0.02236304,5.697648,1.616699,0,0
174.003,40.38913,0.1117393,30.45946,22.69357,-17.03227,3.669388,57,59,-0.212223,0.308212,42.87461,0.2278308,4.623034,0.08347144,0.589471,-0.3650199,0.8071541,-3.563673,-34.91376,-38.58524,16.59947,-35.24989,27.05882,0.99,1094,18,21,0,20.39216,14.90196,0.4447494,14.04224,0.02,0.3368618,149.5348,350.6,0.1719064,5.376335,369,83,4621,0.97,5.168408,3.046875,15.9903,-0.00390625,0,0,0,0,0,0,0,0,0,0,0,0,12.98,0,0,0,0,0,0,0,0,0,50,41,0,0,0,0,0,0,0,0,0,0,0,0,0,0,0,0,0,0,0,0,0,0,0,0,0,0,0,0,0,0,0,0,0,0,0,0,0,0,0,0,0,0,0,0,0,0,0,0,0,0,0,0,0,0,0,15,-0.04315446,0,74.94192,1.523597,0.02238023,5.560418,1.616699,0,0
175.003,40.38913,0.1117393,30.45946,-8.641739,-4.063705,6.843307,57,59,-0.212223,0.308212,42.87461,0.2278308,4.623034,0.08347144,0.4530991,0.000439867,-0.6414355,2.407509,-35.58871,-39.57349,23.19034,-34.07224,27.05882,0.99,1094,18,21,0,20.39216,14.90196,0.4447494,14.04224,0.02,0.3368618,149.5348,350.7,0.1719064,5.376335,369,83,4621,0.97,5.168408,3.046875,15.9903,-0.00390625,0,0,0,0,0,0,0,0,0,0,0,0,12.98,0,0,0,0,0,0,0,0,0,50,41,0,0,0,0,0,0,0,0,0,0,0,0,0,0,0,0,0,0,0,0,0,0,0,0,0,0,0,0,0,0,0,0,0,0,0,0,0,0,0,0,0,0,0,0,0,0,0,0,0,0,0,0,0,0,0,15,-0.04315446,0,74.94192,1.523597,0.02238023,5.560418,1.616699,0,0
176.003,39.14639,0.5955754,30.46023,5.752075,-2.016815,-6.507736,57,59,-0.2924236,1.627167,42.87461,0.2286082,25.42323,0.4449066,0.3528804,-0.6927768,0.3850259,3.029077,-35.55627,-40.50858,25.90731,-34.97781,0,0.98,1104.5,18,21,0,15.29412,25.88235,0.5301719,14.03381,0.01,1.795489,147.1093,350.7,0.9453571,5.375696,388,83,4621,0.97,1.064328,0.2382813,1.209264,-0.00390625,0,0,0,0,0,0,0,0,0,0,0,0,14.2,0,0,0,0,0,0,0,0,0,46,43,0,0,0,0,0,0,0,0,0,0,0,0,0,0,0,0,0,0,0,0,0,0,0,0,0,0,0,0,0,0,0,0,0,0,0,0,0,0,0,0,0,0,0,0,0,0,0,0,0,0,0,0,0,0,0,13,-0.07512974,0,15.43276,1.554002,0.0224566,5.470225,1.654095,0,0
177.003,39.14639,0,30.46023,-1.205521,-6.617203,0.01568604,57,59,-0.1598764,0,42.87461,0.2286082,0,0,0.3812977,-1.079221,-0.3253625,1.228626,-34.0842,-40.33976,22.18413,-35.61729,96.07843,1.17,1367,18,21,0,45.88235,41.96078,1.89662,20.73663,0.2,0,143.4698,350.7,0,5.374691,388,83,4621,0.97,8.654192,3.429688,5.889672,-0.00390625,0,0,0,0,0,0,0,0,0,0,0,0,14.2,0,0,0,0,0,0,0,0,0,46,43,0,0,0,0,0,0,0,0,0,0,0,0,0,0,0,0,0,0,0,0,0,0,0,0,0,0,0,0,0,0,0,0,0,0,0,0,0,0,0,0,0,0,0,0,0,0,0,0,0,0,0,0,0,0,0,13,-0.07512974,0,125.4858,1.593423,0.0224566,5.334893,1.683138,0,0
178.003,39.14639,0,30.46023,-6.033188,-4.728134,1.966125,57,59,-0.1598764,0,42.87461,0.2286082,0,0,-0.3164794,1.193541,0.2748794,-0.2762105,-32.63234,-40.74399,16.93905,-36.077,96.07843,1.17,1367,18,21,0,45.88235,41.96078,1.89662,20.73663,0.2,0,143.4698,350.7,0,5.374691,388,83,4621,0.97,8.654192,3.429688,5.889672,-0.00390625,0,0,0,0,0,0,0,0,0,0,0,0,14.2,0,0,0,0,0,0,0,0,0,46,43,0,0,0,0,0,0,0,0,0,0,0,0,0,0,0,0,0,0,0,0,0,0,0,0,0,0,0,0,0,0,0,0,0,0,0,0,0,0,0,0,0,0,0,0,0,0,0,0,0,0,0,0,0,0,0,13,-0.07512974,0,125.4858,1.593423,0.0224566,5.334893,1.683138,0,0
179.003,39.14639,0,30.46023,-7.829178,-4.280304,-2.140701,57,59,-0.1598764,0,42.87461,0.2286082,0,0,-0.4408966,-0.4753841,0.5124084,-1.970871,-31.96538,-40.60525,14.98548,-35.2379,96.07843,1.17,1367,18,21,0,45.88235,41.96078,1.89662,20.73663,0.2,0,143.4698,350.8,0,5.374691,388,83,4621,0.97,8.654192,3.429688,5.889672,-0.00390625,0,0,0,0,0,0,0,0,0,0,0,0,14.2,0,0,0,0,0,0,0,0,0,46,43,0,0,0,0,0,0,0,0,0,0,0,0,0,0,0,0,0,0,0,0,0,0,0,0,0,0,0,0,0,0,0,0,0,0,0,0,0,0,0,0,0,0,0,0,0,0,0,0,0,0,0,0,0,0,0,13,-0.07512974,0,125.4858,1.593423,0.0224566,5.334893,1.683138,0,0
180.003,39.14639,2.334071,30.46327,-0.7866516,7.793778,-0.03488159,57,59,9.714451E-16,5.339864,42.87461,0.2316464,99.63412,1.743597,-0.5327684,-0.1585909,0.6484753,-4.71682,-33.08831,-39.71793,11.68455,-36.10391,18.43137,1.02,1319,19,21,0,52.15686,52.94118,0.4683018,17.4433,0.05,7.036554,142.6464,350.8,3.704871,5.374449,388,83,4621,0.97,1.140456,0.4492188,1.24196,-0.00390625,0,0,0,0,0,0,0,0,0,0,0,0,14.2,0,0,0,0,0,0,0,0,0,46,43,0,0,0,0,0,0,0,0,0,0,0,0,0,0,0,0,0,0,0,0,0,0,0,0,0,0,0,0,0,0,0,0,0,0,0,0,0,0,0,0,0,0,0,0,0,0,0,0,0,0,0,0,0,0,0,13.4,-0.05910273,0,16.53661,1.62392,0.02275505,5.304275,1.718153,0,0
181.003,39.76776,0.7277457,30.46441,-3.097275,-14.50923,13.48915,57,59,0.0661157,1.677008,42.87461,0.2327883,30.57977,0.5436404,0.117067,0.5738663,0.9296421,-3.405101,-34.31944,-40.15696,13.06102,-34.57326,37.64706,1.09,1309.5,19,21,0,21.56863,21.56863,0.7915393,18.44279,0.12,2.193945,140.1271,351,1.137102,5.373698,388,83,4621,0.97,2.630808,2.300781,2.917752,-0.00390625,0,0,0,0,0,0,0,0,0,0,0,0,14.2,0,0,0,0,0,0,0,0,0,46,43,0,0,0,0,0,0,0,0,0,0,0,0,0,0,0,0,0,0,0,0,0,0,0,0,0,0,0,0,0,0,0,0,0,0,0,0,0,0,0,0,0,0,0,0,0,0,0,0,0,0,0,0,0,0,0,13.4,-0.06129281,0,38.14672,1.661266,0.02286722,5.210593,1.747335,0,0
182.003,39.76776,0.7277457,30.46441,-19.3604,-2.734131,5.253036,57,59,0.0661157,1.677008,42.87461,0.2327883,30.57977,0.5436404,-0.1226262,-0.1000255,-1.417446,-5.354267,-33.10992,-40.43295,9.704378,-33.817,37.64706,1.09,1309.5,19,21,0,21.56863,21.56863,0.7915393,18.44279,0.12,2.193945,140.1271,351,1.137102,5.373698,388,83,4621,0.97,2.630808,2.300781,2.917752,-0.00390625,0,0,0,0,0,0,0,0,0,0,0,0,14.2,0,0,0,0,0,0,0,0,0,46,43,0,0,0,0,0,0,0,0,0,0,0,0,0,0,0,0,0,0,0,0,0,0,0,0,0,0,0,0,0,0,0,0,0,0,0,0,0,0,0,0,0,0,0,0,0,0,0,0,0,0,0,0,0,0,0,13.4,-0.06129281,0,38.14672,1.661266,0.02286722,5.210593,1.747335,0,0
183.003,39.14639,1.003828,30.46572,4.442337,13.03793,-16.04506,57,59,-0.01363663,2.341823,42.87461,0.2340944,42.85027,0.7498796,-0.4780989,0.03762632,-0.4926853,-5.111982,-33.513,-39.53885,11.00322,-32.65721,7.45098,1,1293.5,19,21,0,19.60784,18.82353,0.5384163,16.71326,0.03,3.026255,138.3747,351,1.593377,5.373152,388,83,4621,0.97,7.181408,3.289063,15.9903,-0.00390625,0,0,0,0,0,0,0,0,0,0,0,0,14.2,0,0,0,0,0,0,0,0,0,46,43,0,0,0,0,0,0,0,0,0,0,0,0,0,0,0,0,0,0,0,0,0,0,0,0,0,0,0,0,0,0,0,0,0,0,0,0,0,0,0,0,0,0,0,0,0,0,0,0,0,0,0,0,0,0,0,14,-0.09320322,0,104.1304,1.691742,0.02299552,5.145432,1.777424,0,0
184.003,39.14639,1.003828,30.46572,-5.263153,8.523438,-2.617386,57,59,-0.01363663,2.341823,42.87461,0.2340944,42.85027,0.7498796,-0.996433,0.3892613,-0.4423482,-7.178455,-33.84883,-38.6003,9.074034,-32.96513,7.45098,1,1293.5,19,21,0,19.60784,18.82353,0.5384163,16.71326,0.03,3.026255,138.3747,351,1.593377,5.373152,388,83,4621,0.97,7.181408,3.289063,15.9903,-0.00390625,0,0,0,0,0,0,0,0,0,0,0,0,14.2,0,0,0,0,0,0,0,0,0,46,43,0,0,0,0,0,0,0,0,0,0,0,0,0,0,0,0,0,0,0,0,0,0,0,0,0,0,0,0,0,0,0,0,0,0,0,0,0,0,0,0,0,0,0,0,0,0,0,0,0,0,0,0,0,0,0,14,-0.09320322,0,104.1304,1.691742,0.02299552,5.145432,1.777424,0,0
185.003,37.90364,0.1932223,30.46598,-6.34697,-7.96933,2.479385,57,59,-0.2343018,0.470215,42.87461,0.2343541,8.518476,0.1443409,0.374205,-0.6556951,-0.1942565,-5.786502,-34.70868,-39.48742,10.59023,-32.79375,0,0.99,1240,19,21,0,14.90196,14.90196,0.530118,15.86177,0.02,0.5825098,136.0786,351,0.3167576,5.372422,388,83,4621,0.97,15.9903,3.730469,15.9903,-0.00390625,0,0,0,0,0,0,0,0,0,0,0,0,14.2,0,0,0,0,0,0,0,0,0,46,43,0,0,0,0,0,0,0,0,0,0,0,0,0,0,0,0,0,0,0,0,0,0,0,0,0,0,0,0,0,0,0,0,0,0,0,0,0,0,0,0,0,0,0,0,0,0,0,0,0,0,0,0,0,0,0,14,-0.1241131,0,231.8593,1.722197,0.02302103,5.06005,1.806435,0,0
186.003,37.90364,0.1932223,30.46598,-8.482224,-5.310089,3.264648,57,59,-0.2343018,0.470215,42.87461,0.2343541,8.518476,0.1443409,0.09714483,-0.4149378,0.03413947,-7.467836,-35.51151,-39.03183,9.078863,-33.01764,0,0.99,1240,19,21,0,14.90196,14.90196,0.530118,15.86177,0.02,0.5825098,136.0786,351.1,0.3167576,5.372422,388,83,4621,0.97,15.9903,3.730469,15.9903,-0.00390625,0,0,0,0,0,0,0,0,0,0,0,0,14.2,0,0,0,0,0,0,0,0,0,46,43,0,0,0,0,0,0,0,0,0,0,0,0,0,0,0,0,0,0,0,0,0,0,0,0,0,0,0,0,0,0,0,0,0,0,0,0,0,0,0,0,0,0,0,0,0,0,0,0,0,0,0,0,0,0,0,14,-0.1241131,0,231.8593,1.722197,0.02302103,5.06005,1.806435,0,0
187.003,36.03953,0,30.46598,22.21172,34.53047,-48.67068,57,59,-0.3944508,0,42.87461,0.2343541,0,0,1.373667,-1.184421,-0.4755909,0.8361979,-43.17956,-41.80558,22.88417,-29.83875,0,0.98,1187.5,17,21,0,14.90196,14.90196,0.4986897,15.03676,0.01,0,133.9029,351.2,0,5.371709,388,83,4621,0.97,15.9903,3.769531,15.9903,-0.00390625,0,0,0,0,0,0,0,0,0,0,0,0,14.2,0,0,0,0,0,0,0,0,0,46,43,0,0,0,0,0,0,0,0,0,0,0,0,0,0,0,0,0,0,0,0,0,0,0,0,0,0,0,0,0,0,0,0,0,0,0,0,0,0,0,0,0,0,0,0,0,0,0,0,0,0,0,0,0,0,0,15,-0.1560374,0,231.8593,1.750179,0.02302103,4.979149,1.841403,0,0
188.003,36.03953,0,30.46598,46.03441,60.12024,34.12012,57,59,-0.3944508,0,42.87461,0.2343541,0,0,0.6809521,0.3040099,1.766188,2.003338,-42.51915,-44.31113,19.39954,-27.06152,0,0.98,1187.5,17,21,0,14.90196,14.90196,0.4986897,15.03676,0.01,0,133.9029,351.4,0,5.371709,388,83,4621,0.97,15.9903,3.769531,15.9903,-0.00390625,0,0,0,0,0,0,0,0,0,0,0,0,14.2,0,0,0,0,0,0,0,0,0,46,43,0,0,0,0,0,0,0,0,0,0,0,0,0,0,0,0,0,0,0,0,0,0,0,0,0,0,0,0,0,0,0,0,0,0,0,0,0,0,0,0,0,0,0,0,0,0,0,0,0,0,0,0,0,0,0,15,-0.1560374,0,231.8593,1.750179,0.02302103,4.979149,1.841403,0,0
189.003,34.17542,0,30.46598,-14.58144,-22.17708,-6.231583,57,59,-0.4385062,0,42.87461,0.2343541,0,0,-0.3722877,0.1738624,-1.424361,-4.999458,-32.99708,-36.8656,10.41637,-33.18544,0,0.97,1117.5,17,21,0,14.90196,14.90196,0.4867503,14.10254,0,0,131.4948,351.5,0,5.370893,388,83,4621,0.97,15.9903,3.792969,15.9903,-0.00390625,0,0,0,0,0,0,0,0,0,0,0,0,14.2,0,0,0,0,0,0,0,0,0,46,43,0,0,0,0,0,0,0,0,0,0,0,0,0,0,0,0,0,0,0,0,0,0,0,0,0,0,0,0,0,0,0,0,0,0,0,0,0,0,0,0,0,0,0,0,0,0,0,0,0,0,0,0,0,0,0,15,-0.1957584,0,231.8593,1.782231,0.02302103,4.889603,1.870214,0,0
190.003,34.17542,0,30.46598,-4.131592,-11.6483,5.343918,57,59,-0.4385062,0,42.87461,0.2343541,0,0,-0.1084175,0.5234701,-0.3858364,-4.769632,-33.11639,-37.41534,9.95713,-32.57443,0,0.97,1117.5,17,21,0,14.90196,14.90196,0.4867503,14.10254,0,0,131.4948,351.6,0,5.370893,388,83,4621,0.97,15.9903,3.792969,15.9903,-0.00390625,0,0,0,0,0,0,0,0,0,0,0,0,14.2,0,0,0,0,0,0,0,0,0,46,43,0,0,0,0,0,0,0,0,0,0,0,0,0,0,0,0,0,0,0,0,0,0,0,0,0,0,0,0,0,0,0,0,0,0,0,0,0,0,0,0,0,0,0,0,0,0,0,0,0,0,0,0,0,0,0,15,-0.1957584,0,231.8593,1.782231,0.02302103,4.889603,1.870214,0,0
191.003,32.93267,0,30.46598,-2.129074,6.490219,-3.660889,57,59,-0.3583828,0,42.87461,0.2343541,0,0,0.8817269,0.7168505,-0.7632762,5.035632,-31.08939,-42.16955,16.65676,-29.27606,66.66666,1.02,1124.5,17,21,0,37.2549,37.2549,0.8075001,14.92236,0.05,0,129.6331,351.8,0,5.370241,388,83,4621,0.97,1.21756,0.6484375,1.104832,-0.00390625,0,0,0,0,0,0,0,0,0,0,0,0,14.2,0,0,0,0,0,0,0,0,0,46,43,0,0,0,0,0,0,0,0,0,0,0,0,0,0,0,0,0,0,0,0,0,0,0,0,0,0,0,0,0,0,0,0,0,0,0,0,0,0,0,0,0,0,0,0,0,0,0,0,0,0,0,0,0,0,0,13,-0.2117788,0,17.65462,1.807826,0.02302103,4.820376,1.900679,0,0
192.003,33.55404,3.543518,30.47082,-12.85721,2.118439,6.685211,57,59,-0.08389227,9.092604,42.87461,0.239197,176.4718,2.647078,0.1260197,-0.289904,-0.1260372,1.173685,-33.21357,-41.56497,12.95579,-29.43315,98.82353,1.19,1176,17,21,0,45.4902,45.88235,1.241305,18.20674,0.22,10.68269,130.3327,352,6.562065,5.370396,388,83,4621,0.97,1.11996,0.3984375,1.118984,-0.00390625,0,0,0,0,0,0,0,0,0,0,0,0,14.2,0,0,0,0,0,0,0,0,0,46,43,0,0,0,0,0,0,0,0,0,0,0,0,0,0,0,0,0,0,0,0,0,0,0,0,0,0,0,0,0,0,0,0,0,0,0,0,0,0,0,0,0,0,0,0,0,0,0,0,0,0,0,0,0,0,0,13,-0.1700922,0,16.23942,1.83528,0.02349676,4.846391,1.929735,0,0
