Time (sec),Vehicle speed (MPH),Fuel rate (l/hr),Total CO2 (kg), Rotation Rate X (deg/s), Rotation Rate Y (deg/s), Rotation Rate Z (deg/s), Engine coolant temperature (°C),Engine coolant temperature 1 (°C),Acceleration (m/s²),Engine Torque (kg•m),Max Speed (MPH),Total Trip CO2 (kg),Instant CO2 rate (g/km),CO2 flow (g/s), Accel X (m/s²), Accel Y (m/s²), Accel Z (m/s²), Roll (deg), Pitch (deg),Magnetometer X (µT), Magnetometer Y (µT), Magnetometer Z (µT),Calculated load value (%), Intake manifold absolute pressure (bar), Engine RPM (RPM), Intake air temperature (°C), Ambient air temperature (°C), Absolute throttle position B (%), Accelerator pedal position D (%), Accelerator pedal position E (%), Intake manifold absolute pressure (bar), Mass air flow rate (g/s), Boost (bar),Engine Power (kW),Average Trip CO2 Rate (g/km),Altitude (m),Instant fuel economy (l/100 km),Total fuel economy (l/100 km), Time since engine start (sec), Number of warm-ups since DTCs cleared, Distance traveled since DTCs cleared (km), Barometric pressure (bar),O2 sensor lambda wide range (current probe)  (Bank 1  Sensor 1),O2 sensor current wide range (Bank 1  Sensor 1) (mA),O2 sensor lambda wide range (current probe)  (Bank 1  Sensor 2),O2 sensor current wide range (Bank 1  Sensor 2) (mA),O2 sensor lambda wide range (current probe)  (Bank 1  Sensor 3),O2 sensor current wide range (Bank 1  Sensor 3) (mA),O2 sensor lambda wide range (current probe)  (Bank 1  Sensor 4),O2 sensor current wide range (Bank 1  Sensor 4) (mA),O2 sensor lambda wide range (current probe)  (Bank 2  Sensor 1),O2 sensor current wide range (Bank 2  Sensor 1) (mA),O2 sensor lambda wide range (current probe)  (Bank 2  Sensor 2),O2 sensor current wide range (Bank 2  Sensor 2) (mA),O2 sensor lambda wide range (current probe)  (Bank 2  Sensor 3),O2 sensor current wide range (Bank 2  Sensor 3) (mA),O2 sensor lambda wide range (current probe)  (Bank 2  Sensor 4),O2 sensor current wide range (Bank 2  Sensor 4) (mA), Control module voltage (V), Absolute throttle position C (%), Mass air flow sensor B (g/s), Relative throttle B position (%), Commanded boost pressure A (bar), Boost pressure sensor A (bar), Commanded boost pressure B (bar), Boost pressure sensor B (bar), Boost pressure A control status, Boost pressure B control status,Charge air cooler temperature bank 1  sensor 1 (°C),Charge air cooler temperature bank 1  sensor 2 (°C), Manifold surface temperature (°C), Intake manifold absolute pressure A (bar), Intake manifold absolute pressure B (bar),Total run time with EI-AECD #11 Timer 1 active (sec),Total run time with EI-AECD #11 Timer 2 active (sec),Total run time with EI-AECD #12 Timer 1 active (sec),Total run time with EI-AECD #12 Timer 2 active (sec), Diesel aftertreatment status,O2 sensor concentration bank 1 sensor 1 (%),O2 sensor concentration bank 1 sensor 2 (%),O2 sensor concentration bank 2 sensor 1 (%),O2 sensor concentration bank 2 sensor 2 (%), Absolute throttle position G (%),Target SCR Catalyst NH3 Storage A (g/L),Actual/Modelled SCR Catalyst NH3 Storage A (g/L),Target SCR Catalyst NH3 Storage B (g/L),Actual/Modelled SCR Catalyst NH3 Storage B (g/L), Hydrocarbon Doser Flow Rate (g/min), Hydrocarbon Doser Injector Duty Cycle (%),O2 sensor concentration bank 1 sensor 3 (%),O2 sensor concentration bank 1 sensor 4 (%),O2 sensor concentration bank 2 sensor 3 (%),O2 sensor concentration bank 2 sensor 4 (%),O2 sensor lambda bank 1 sensor 3,O2 sensor lambda bank 1 sensor 4,O2 sensor lambda bank 2 sensor 3,O2 sensor lambda bank 2 sensor 4, Engine Fuel Rate (g/s), Vehicle Fuel Rate (g/s), Engine Exhaust Flow Rate (g/s),Fuel System A Use Percentage Bank 1 (%),Fuel System A Use Percentage Bank 2 (%), Cylinder Fuel Rate, Transmission Actual Gear Status, Transmission Actual Gear Ratio, Vehicle Odometer Reading (km), Motorcycle ABS Disable Switch State, Maximum Current Vehicle Speed Limit (MPH), Alternative Fuel Tank Pressure (bar), Alternative Fuel Tank Temperature (°C),Crankcase Pressure Sensor (inH2O),Fuel System Status Bank 1,Fuel System Status Bank 2,Short Term Fuel Trim Bank 1 (%),Long Term Fuel Trim Bank 1 (%),Short Term Fuel Trim Bank 2 (%),Long Term Fuel Trim Bank 2 (%),O2 Sensor Concentration Bank 1 Sensor 5 (%),O2 Sensor Concentration Bank 1 Sensor 6 (%),O2 Sensor Concentration Bank 2 Sensor 5 (%),O2 Sensor Concentration Bank 2 Sensor 6 (%),O2 Sensor Lambda Bank 1 Sensor 5,O2 Sensor Lambda Bank 1 Sensor 6,O2 Sensor Lambda Bank 2 Sensor 5,O2 Sensor Lambda Bank 2 Sensor 6, Input voltage read by the scan tool (V), Acceleration (Avg) (m/s²), A/F Commanded, A/F Actual,Trip Distance (km), Trip Fuel (gal),Trip Fuel Economy (l/100 km),Trip Duration (min), Idling Count, Seconds Idling (sec)
0.000,0,0,0,5.013046,17.56993,-2.792236,0,0,0,0,0,0,0,0,0.7795483,0.6037362,0.7834482,1.279326,-47.42752,0.5717468,29.91968,-33.94762,0,0,0,0,0,0,0,0,0,0,0,0,0,343.9,0,0,0,0,0,0,0,0,0,0,0,0,0,0,0,0,0,0,0,0,0,0,0,0,0,0,0,0,0,0,0,0,0,0,0,0,0,0,0,0,0,0,0,0,0,0,0,0,0,0,0,0,0,0,0,0,0,0,0,0,0,0,0,0,0,0,0,0,0,0,0,0,0,0,0,0,0,0,0,0,0,0,0,0,0,0,0,0,0,0,0,0,0,0,0,0,0,0,0
1.000,0,0,0,-2.143951,-29.43997,-12.49529,0,0,0,0,0,0,0,0,0.8909563,0.6083044,-0.7112943,1.53036,-37.74077,5.119186,22.36573,-39.74582,0,0,0,0,0,0,0,0,0,0,0,0,0,343.9,0,0,0,0,0,0,0,0,0,0,0,0,0,0,0,0,0,0,0,0,0,0,0,0,0,0,0,0,0,0,0,0,0,0,0,0,0,0,0,0,0,0,0,0,0,0,0,0,0,0,0,0,0,0,0,0,0,0,0,0,0,0,0,0,0,0,0,0,0,0,0,0,0,0,0,0,0,0,0,0,0,0,0,0,0,0,0,0,0,0,0,0,0,0,0,0,0,0,0
2.000,0,0,0,25.26276,-18.54793,-17.88626,0,0,0,0,0,0,0,0,-0.6166194,0.3793632,0.9354739,-4.021341,-33.51747,17.94553,21.73512,-47.64885,0,0,0,0,0,0,0,0,0,0,0,0,0,344,0,0,0,0,0,0,0,0,0,0,0,0,0,0,0,0,0,0,0,0,0,0,0,0,0,0,0,0,0,0,0,0,0,0,0,0,0,0,0,0,0,0,0,0,0,0,0,0,0,0,0,0,0,0,0,0,0,0,0,0,0,0,0,0,0,0,0,0,0,0,0,0,0,0,0,0,0,0,0,0,0,0,0,0,0,0,0,0,0,0,0,0,0,0,0,0,0,0,0
3.002,8.077826,0,0,-15.29323,-32.06523,-12.72498,90,90,0.0102411,1.689334,8.077826,0,442.0019,0,-1.307593,1.138056,-0.8613704,-9.124451,-26.26519,7.113327,15.88043,-56.20145,25.88235,1,969.5,28,19,0,19.21569,18.03922,0,12.48414,0,0,0,344,16.43574,5.2321,2202,60,4051,0.98,3.357928,2.636719,3.23056,2.65625,0,0,0,0,0,0,0,0,0,0,0,0,13.04,0,0,0,0,0,0,0,0,0,64,46,0,0,0,0,0,0,0,0,0,0,0,0,0,0,0,0,0,0,0,0,0,0,0,0,0,0,0,0,0,0,0,0,0,0,0,0,0,0,0,0,0,0,0,0,0,0,0,0,0,0,0,0,0,0,0,13.1,0.002048219,0,48.68996,0,0,0,0,0,0
4.000,8.077826,0,0,-14.68216,-4.606781,-25.35236,90,90,0.0102411,1.689334,8.077826,0,442.0019,0,2.559501,-0.1931201,1.575292,0.964178,-33.65488,-2.597939,22.63768,-51.90274,25.88235,1,969.5,28,19,0,19.21569,18.03922,0,12.48414,0,0,0,344,16.43574,5.2321,2202,60,4051,0.98,3.357928,2.636719,3.23056,2.65625,0,0,0,0,0,0,0,0,0,0,0,0,13.04,0,0,0,0,0,0,0,0,0,64,46,0,0,0,0,0,0,0,0,0,0,0,0,0,0,0,0,0,0,0,0,0,0,0,0,0,0,0,0,0,0,0,0,0,0,0,0,0,0,0,0,0,0,0,0,0,0,0,0,0,0,0,0,0,0,0,13.1,0.002048219,0,48.68996,0,0,0,0,0,0
5.000,8.077826,0.4772592,8.643577,3.454437,-3.877899,-7.365845,90,90,0.0102411,1.620906,8.077826,0.001131781,98.72919,0.3565221,-0.3343238,0.2169244,0.4021768,-2.181618,-37.47296,-10.63973,24.57447,-50.58092,21.56863,1,888.5,28,19,0,18.82353,18.82353,0.518412,11.13718,0.02,1.4388,99.31927,343.9,3.671222,5.231814,2202,60,4051,0.97,2.745488,2.371094,2.870416,2.492188,0,0,0,0,0,0,0,0,0,0,0,0,13.04,0,0,0,0,0,0,0,0,0,64,46,0,0,0,0,0,0,0,0,0,0,0,0,0,0,0,0,0,0,0,0,0,0,0,0,0,0,0,0,0,0,0,0,0,0,0,0,0,0,0,0,0,0,0,0,0,0,0,0,0,0,0,0,0,0,0,13.1,0.002048219,0,39.80957,0.01139539,0.000111177,3.693164,0.08580244,0,0
6.001,7.456454,0.4539013,8.644168,-1.434311,25.58803,-25.48024,90,90,-0.07870124,1.453252,8.077826,0.001722832,101.722,0.3390732,0.7094529,-0.1568885,1.316853,0.803021,-40.24129,-22.45081,25.39302,-44.79745,34.90196,1,942.5,28,19,0,21.17647,20.39216,0.6455855,11.81406,0.03,1.368382,99.7129,343.9,3.782508,5.231671,2202,60,4051,0.97,2.65472,2.351563,2.541016,2.324219,0,0,0,0,0,0,0,0,0,0,0,0,13.04,0,0,0,0,0,0,0,0,0,64,46,0,0,0,0,0,0,0,0,0,0,0,0,0,0,0,0,0,0,0,0,0,0,0,0,0,0,0,0,0,0,0,0,0,0,0,0,0,0,0,0,0,0,0,0,0,0,0,0,0,0,0,0,0,0,0,13.1,-0.01369203,0,38.49344,0.01727792,0.0001692369,3.707801,0.1155894,0,0
7.001,7.456454,0.4539013,8.644168,5.889542,-26.03413,-25.70012,90,90,-0.07870124,1.453252,8.077826,0.001722832,101.722,0.3390732,0.6453398,0.2013098,0.01779402,2.352975,-39.10461,-23.68386,17.76809,-46.73393,34.90196,1,942.5,28,19,0,21.17647,20.39216,0.6455855,11.81406,0.03,1.368382,99.7129,343.8,3.782508,5.231671,2202,60,4051,0.97,2.65472,2.351563,2.541016,2.324219,0,0,0,0,0,0,0,0,0,0,0,0,13.04,0,0,0,0,0,0,0,0,0,64,46,0,0,0,0,0,0,0,0,0,0,0,0,0,0,0,0,0,0,0,0,0,0,0,0,0,0,0,0,0,0,0,0,0,0,0,0,0,0,0,0,0,0,0,0,0,0,0,0,0,0,0,0,0,0,0,13.1,-0.01369203,0,38.49344,0.01727792,0.0001692369,3.707801,0.1155894,0,0
8.001,8.077826,0.6834173,8.645083,-11.38191,-10.15639,-10.12053,90,90,-0.001711344,2.075769,8.077826,0.00263774,141.3765,0.5105262,0.7578569,0.005255199,-0.3910449,-2.166818,-33.42019,-16.68769,11.8227,-47.7426,29.41176,1.01,993.5,28,19,0,27.05882,28.23529,0.5662745,12.57787,0.04,2.060307,110.8652,343.7,5.257052,5.23167,2202,60,4051,0.97,1.85196,1.710938,1.879288,1.773438,0,0,0,0,0,0,0,0,0,0,0,0,13.04,0,0,0,0,0,0,0,0,0,64,46,0,0,0,0,0,0,0,0,0,0,0,0,0,0,0,0,0,0,0,0,0,0,0,0,0,0,0,0,0,0,0,0,0,0,0,0,0,0,0,0,0,0,0,0,0,0,0,0,0,0,0,0,0,0,0,13.1,0.00170595,0,26.85342,0.02379232,0.00025911,4.122495,0.1446045,0,0
9.001,8.077826,0.6834173,8.645083,-1.409897,19.45169,-33.35771,90,90,-0.001711344,2.075769,8.077826,0.00263774,141.3765,0.5105262,-1.040822,0.604184,-3.816286,-2.383573,-27.96779,-19.49113,7.589138,-51.13782,29.41176,1.01,993.5,28,19,0,27.05882,28.23529,0.5662745,12.57787,0.04,2.060307,110.8652,343.6,5.257052,5.23167,2202,60,4051,0.97,1.85196,1.710938,1.879288,1.773438,0,0,0,0,0,0,0,0,0,0,0,0,13.04,0,0,0,0,0,0,0,0,0,64,46,0,0,0,0,0,0,0,0,0,0,0,0,0,0,0,0,0,0,0,0,0,0,0,0,0,0,0,0,0,0,0,0,0,0,0,0,0,0,0,0,0,0,0,0,0,0,0,0,0,0,0,0,0,0,0,13.1,0.00170595,0,26.85342,0.02379232,0.00025911,4.122495,0.1446045,0,0
10.001,9.320568,0.9271432,8.646294,2.496078,0.9579315,-19.24872,90,90,0.2369612,2.352033,9.320568,0.003848407,166.2226,0.6925943,-0.8995689,-0.3051161,0.7241898,5.294259,-46.62311,-25.65565,27.29915,-30.41603,63.13726,1.06,1189.5,33,19,0,29.41176,28.23529,0.8648288,15.80476,0.09,2.795071,124.0325,343.6,6.18095,5.231787,2202,60,4051,0.98,1.584536,1.375,1.58356,1.386719,0,0,0,0,0,0,0,0,0,0,0,0,13.04,0,0,0,0,0,0,0,0,0,64,46,0,0,0,0,0,0,0,0,0,0,0,0,0,0,0,0,0,0,0,0,0,0,0,0,0,0,0,0,0,0,0,0,0,0,0,0,0,0,0,0,0,0,0,0,0,0,0,0,0,0,0,0,0,0,0,13.1,0.03370022,0,22.97577,0.03102742,0.0003780361,4.612118,0.1797044,0,0
11.001,9.320568,0.9271432,8.646294,11.10394,4.782822,-14.73679,90,90,0.2369612,2.352033,9.320568,0.003848407,166.2226,0.6925943,-0.1249951,-0.2732777,0.180411,7.128536,-48.20906,-29.56566,27.28455,-24.74214,63.13726,1.06,1189.5,33,19,0,29.41176,28.23529,0.8648288,15.80476,0.09,2.795071,124.0325,343.6,6.18095,5.231787,2202,60,4051,0.98,1.584536,1.375,1.58356,1.386719,0,0,0,0,0,0,0,0,0,0,0,0,13.04,0,0,0,0,0,0,0,0,0,64,46,0,0,0,0,0,0,0,0,0,0,0,0,0,0,0,0,0,0,0,0,0,0,0,0,0,0,0,0,0,0,0,0,0,0,0,0,0,0,0,0,0,0,0,0,0,0,0,0,0,0,0,0,0,0,0,13.1,0.03370022,0,22.97577,0.03102742,0.0003780361,4.612118,0.1797044,0,0
12.001,11.80605,1.738943,8.649014,-80.96828,23.43443,17.14485,90,90,0.4235834,3.991956,11.80605,0.00656907,246.131,1.299025,-1.816097,-0.3973223,0.2706315,2.346225,-50.02853,-26.95698,17.34274,-23.52589,23.52941,1.02,1314.5,33,19,0,21.56863,21.96078,0.6415919,16.53206,0.04,5.242414,155.8491,343.6,9.152324,5.232486,2202,60,4051,0.98,2.255048,2.085938,2.262856,2.132813,0,0,0,0,0,0,0,0,0,0,0,0,13.04,0,0,0,0,0,0,0,0,0,64,46,0,0,0,0,0,0,0,0,0,0,0,0,0,0,0,0,0,0,0,0,0,0,0,0,0,0,0,0,0,0,0,0,0,0,0,0,0,0,0,0,0,0,0,0,0,0,0,0,0,0,0,0,0,0,0,13.1,0.08642264,0,32.6982,0.0421502,0.0006452918,5.795213,0.2091045,0,0
13.001,11.80605,1.738943,8.649014,-16.07225,2.574966,-11.80289,90,90,0.4235834,3.991956,11.80605,0.00656907,246.131,1.299025,-0.5623397,0.8374957,-0.2748035,3.512927,-38.19385,-33.28595,4.775963,-15.47107,23.52941,1.02,1314.5,33,19,0,21.56863,21.96078,0.6415919,16.53206,0.04,5.242414,155.8491,343.6,9.152324,5.232486,2202,60,4051,0.98,2.255048,2.085938,2.262856,2.132813,0,0,0,0,0,0,0,0,0,0,0,0,13.04,0,0,0,0,0,0,0,0,0,64,46,0,0,0,0,0,0,0,0,0,0,0,0,0,0,0,0,0,0,0,0,0,0,0,0,0,0,0,0,0,0,0,0,0,0,0,0,0,0,0,0,0,0,0,0,0,0,0,0,0,0,0,0,0,0,0,13.1,0.08642264,0,32.6982,0.0421502,0.0006452918,5.795213,0.2091045,0,0
14.001,12.42742,0.7458466,8.65,13.71994,-25.02983,-3.055496,90,90,0.3422011,1.612801,12.42742,0.007553882,100.2892,0.5571622,0.5385963,-0.3354661,-1.177109,1.562439,-41.46774,-34.89553,9.103422,-18.12944,41.96078,1.01,1395.5,33,19,0,23.92157,23.52941,0.6681924,17.37871,0.03,2.248514,145.3552,343.6,3.72923,5.232246,2202,60,4051,0.97,2.085224,1.953125,2.0374,1.941406,0,0,0,0,0,0,0,0,0,0,0,0,13.04,0,0,0,0,0,0,0,0,0,64,46,0,0,0,0,0,0,0,0,0,0,0,0,0,0,0,0,0,0,0,0,0,0,0,0,0,0,0,0,0,0,0,0,0,0,0,0,0,0,0,0,0,0,0,0,0,0,0,0,0,0,0,0,0,0,0,13.4,0.1021404,0,30.23575,0.05196842,0.0007420316,5.405,0.239244,0,0
15.001,12.42742,0.7458466,8.65,55.63573,62.29768,-10.93234,90,90,0.3422011,1.612801,12.42742,0.007553882,100.2892,0.5571622,-1.465974,2.202489,-4.277552,-1.085462,-28.25949,-31.65004,-0.3996887,-14.72411,41.96078,1.01,1395.5,33,19,0,23.92157,23.52941,0.6681924,17.37871,0.03,2.248514,145.3552,343.7,3.72923,5.232246,2202,60,4051,0.97,2.085224,1.953125,2.0374,1.941406,0,0,0,0,0,0,0,0,0,0,0,0,13.04,0,0,0,0,0,0,0,0,0,64,46,0,0,0,0,0,0,0,0,0,0,0,0,0,0,0,0,0,0,0,0,0,0,0,0,0,0,0,0,0,0,0,0,0,0,0,0,0,0,0,0,0,0,0,0,0,0,0,0,0,0,0,0,0,0,0,13.4,0.1021404,0,30.23575,0.05196842,0.0007420316,5.405,0.239244,0,0
16.001,13.04879,1.257632,8.651694,25.71307,17.9386,42.69962,90,90,0.1556037,2.703009,13.04879,0.009249414,161.053,0.939476,-0.9353024,-0.7277114,1.420201,2.256988,-41.00549,-34.61181,6.593668,-13.43425,14.90196,1.03,1404,33,19,0,14.90196,14.90196,0.595119,17.83079,0.06,3.7914,148.0183,343.6,5.988719,5.232376,2202,60,4051,0.97,12.59577,3.585938,6.29764,3.324219,0,0,0,0,0,0,0,0,0,0,0,0,13.04,0,0,0,0,0,0,0,0,0,64,46,0,0,0,0,0,0,0,0,0,0,0,0,0,0,0,0,0,0,0,0,0,0,0,0,0,0,0,0,0,0,0,0,0,0,0,0,0,0,0,0,0,0,0,0,0,0,0,0,0,0,0,0,0,0,0,13.4,0.1175434,0,182.6386,0.0624883,0.0009085869,5.504027,0.2682554,0,0
17.001,13.04879,1.257632,8.651694,34.97729,17.08229,-32.13232,90,90,0.1556037,2.703009,13.04879,0.009249414,161.053,0.939476,0.07695316,0.6695553,1.381639,12.72749,-39.09793,-34.23092,10.46521,-7.127319,14.90196,1.03,1404,33,19,0,14.90196,14.90196,0.595119,17.83079,0.06,3.7914,148.0183,343.6,5.988719,5.232376,2202,60,4051,0.97,12.59577,3.585938,6.29764,3.324219,0,0,0,0,0,0,0,0,0,0,0,0,13.04,0,0,0,0,0,0,0,0,0,64,46,0,0,0,0,0,0,0,0,0,0,0,0,0,0,0,0,0,0,0,0,0,0,0,0,0,0,0,0,0,0,0,0,0,0,0,0,0,0,0,0,0,0,0,0,0,0,0,0,0,0,0,0,0,0,0,13.4,0.1175434,0,182.6386,0.0624883,0.0009085869,5.504027,0.2682554,0,0
18.001,11.18468,0.3681255,8.652172,-12.58376,-12.36456,14.95009,90,90,-0.1628724,0.9116567,13.04879,0.009727024,54.9994,0.274997,0.4415558,-0.2594086,-1.339892,13.60235,-38.0251,-31.84804,9.592041,-8.960938,0,1,1218.5,30,19,0,14.90196,14.90196,0.4875386,15.02422,0.03,1.109793,136.6674,343.6,2.04514,5.231926,2202,60,4051,0.97,15.9903,3.902344,15.9903,3.9375,0,0,0,0,0,0,0,0,0,0,0,0,13.04,0,0,0,0,0,0,0,0,0,64,46,0,0,0,0,0,0,0,0,0,0,0,0,0,0,0,0,0,0,0,0,0,0,0,0,0,0,0,0,0,0,0,0,0,0,0,0,0,0,0,0,0,0,0,0,0,0,0,0,0,0,0,0,0,0,0,14.9,0.06956597,0,231.8593,0.07117295,0.0009555034,5.081947,0.3032443,0,0
19.001,11.18468,0.3681255,8.652172,16.33237,1.461746,9.702484,90,90,-0.1628724,0.9116567,13.04879,0.009727024,54.9994,0.274997,0.1769355,0.8214557,-0.6723398,21.44176,-39.28917,-36.26596,21.66744,-13.2879,0,1,1218.5,30,19,0,14.90196,14.90196,0.4875386,15.02422,0.03,1.109793,136.6674,343.5,2.04514,5.231926,2202,60,4051,0.97,15.9903,3.902344,15.9903,3.9375,0,0,0,0,0,0,0,0,0,0,0,0,13.04,0,0,0,0,0,0,0,0,0,64,46,0,0,0,0,0,0,0,0,0,0,0,0,0,0,0,0,0,0,0,0,0,0,0,0,0,0,0,0,0,0,0,0,0,0,0,0,0,0,0,0,0,0,0,0,0,0,0,0,0,0,0,0,0,0,0,14.9,0.06956597,0,231.8593,0.07117295,0.0009555034,5.081947,0.3032443,0,0
20.001,8.077826,0,8.652172,13.45499,7.143417,17.82309,90,90,-0.5702145,0,13.04879,0.009727024,0,0,-0.5907375,-0.01166784,-1.120917,22.46191,-40.30697,-38.84868,29.58977,-12.55077,32.15686,1.01,874,30,19,0,16.86275,29.80392,0.3947828,10.99198,0.04,0,123.4949,343.6,0,5.23128,2202,60,4051,0.98,1.467904,1.203125,1.563552,1.347656,0,0,0,0,0,0,0,0,0,0,0,0,13.04,0,0,0,0,0,0,0,0,0,64,46,0,0,0,0,0,0,0,0,0,0,0,0,0,0,0,0,0,0,0,0,0,0,0,0,0,0,0,0,0,0,0,0,0,0,0,0,0,0,0,0,0,0,0,0,0,0,0,0,0,0,0,0,0,0,0,14.9,0.003500479,0,21.28461,0.07876455,0.0009555034,4.592131,0.3338242,0,0
21.003,8.077826,0,8.652172,-29.65273,46.12653,51.45784,90,90,-0.5702145,0,13.04879,0.009727024,0,0,-3.360905,-1.700347,1.391373,12.10626,-56.31149,-38.64359,34.8098,-17.4521,32.15686,1.01,874,30,19,0,16.86275,29.80392,0.3947828,10.99198,0.04,0,123.4949,343.5,0,5.23128,2202,60,4051,0.98,1.467904,1.203125,1.563552,1.347656,0,0,0,0,0,0,0,0,0,0,0,0,13.04,0,0,0,0,0,0,0,0,0,64,46,0,0,0,0,0,0,0,0,0,0,0,0,0,0,0,0,0,0,0,0,0,0,0,0,0,0,0,0,0,0,0,0,0,0,0,0,0,0,0,0,0,0,0,0,0,0,0,0,0,0,0,0,0,0,0,14.9,0.003500479,0,21.28461,0.07876455,0.0009555034,4.592131,0.3338242,0,0
22.002,8.699197,1.413688,8.654112,28.25706,35.17181,43.11522,90,90,-0.2542616,3.440273,13.04879,0.01166642,271.5565,1.056053,-0.521359,-0.07440891,0.6683368,5.414588,-49.38526,-29.13421,30.33033,-27.84219,73.72549,1.15,1240,30,19,0,34.5098,34.11765,1.380116,17.75671,0.17,4.261865,135.8689,343.6,10.09776,5.231849,2221,60,4051,0.98,1.376648,1.003906,1.380064,1.019531,0,0,0,0,0,0,0,0,0,0,0,0,13.34,0,0,0,0,0,0,0,0,0,65,45,0,0,0,0,0,0,0,0,0,0,0,0,0,0,0,0,0,0,0,0,0,0,0,0,0,0,0,0,0,0,0,0,0,0,0,0,0,0,0,0,0,0,0,0,0,0,0,0,0,0,0,0,0,0,0,13.4,0.01666542,0,19.9614,0.08586529,0.001146014,5.052254,0.3712513,0,0
23.002,8.699197,1.413688,8.654112,-1.923111,10.03128,4.375916,90,90,-0.2542616,3.440273,13.04879,0.01166642,271.5565,1.056053,0.2813779,-0.2247455,-0.5209749,9.242658,-47.15361,-24.68389,34.99277,-28.67746,73.72549,1.15,1240,30,19,0,34.5098,34.11765,1.380116,17.75671,0.17,4.261865,135.8689,343.6,10.09776,5.231849,2221,60,4051,0.98,1.376648,1.003906,1.380064,1.019531,0,0,0,0,0,0,0,0,0,0,0,0,13.34,0,0,0,0,0,0,0,0,0,65,45,0,0,0,0,0,0,0,0,0,0,0,0,0,0,0,0,0,0,0,0,0,0,0,0,0,0,0,0,0,0,0,0,0,0,0,0,0,0,0,0,0,0,0,0,0,0,0,0,0,0,0,0,0,0,0,13.4,0.01666542,0,19.9614,0.08586529,0.001146014,5.052254,0.3712513,0,0
24.002,13.04879,3.422401,8.659846,0.8769073,23.94421,-48.23515,90,90,0.5075959,6.675773,13.04879,0.01740138,438.2745,2.556601,-1.201306,1.813863,-0.1749492,1.343519,-46.99554,-25.53689,29.38051,-26.03471,70.58823,1.15,1547,30,19,0,40.39216,41.17647,1.027161,22.15293,0.17,10.31756,175.758,343.6,16.29713,5.234198,2221,60,4051,0.98,1.358104,0.9921875,1.352736,0.9765625,0,0,0,0,0,0,0,0,0,0,0,0,13.34,0,0,0,0,0,0,0,0,0,65,45,0,0,0,0,0,0,0,0,0,0,0,0,0,0,0,0,0,0,0,0,0,0,0,0,0,0,0,0,0,0,0,0,0,0,0,0,0,0,0,0,0,0,0,0,0,0,0,0,0,0,0,0,0,0,0,13.4,0.1029714,0,19.69251,0.09900759,0.001709369,6.53552,0.4003902,0,0
25.002,13.04879,3.422401,8.659846,38.9986,56.4568,-36.18407,90,90,0.5075959,6.675773,13.04879,0.01740138,438.2745,2.556601,-1.20371,-0.22081,-1.284044,-11.16452,-35.04707,-22.78867,16.50169,-36.29337,70.58823,1.15,1547,30,19,0,40.39216,41.17647,1.027161,22.15293,0.17,10.31756,175.758,343.6,16.29713,5.234198,2221,60,4051,0.98,1.358104,0.9921875,1.352736,0.9765625,0,0,0,0,0,0,0,0,0,0,0,0,13.34,0,0,0,0,0,0,0,0,0,65,45,0,0,0,0,0,0,0,0,0,0,0,0,0,0,0,0,0,0,0,0,0,0,0,0,0,0,0,0,0,0,0,0,0,0,0,0,0,0,0,0,0,0,0,0,0,0,0,0,0,0,0,0,0,0,0,13.4,0.1029714,0,19.69251,0.09900759,0.001709369,6.53552,0.4003902,0,0
26.002,16.77702,5.375881,8.666826,-7.609802,-20.29955,-11.03159,90,90,0.9110022,8.47778,16.77702,0.02438101,535.4519,4.015889,-0.2006642,1.554843,0.1965291,-3.396237,-35.90192,-31.74795,17.13754,-32.17773,62.35294,1.38,1913.5,36,19,0,47.05882,50.19608,1.350747,32.88142,0.4,16.20674,217.6045,343.7,19.91065,5.237307,2221,60,4051,0.98,1.11752,0.3828125,1.126792,0.421875,0,0,0,0,0,0,0,0,0,0,0,0,13.34,0,0,0,0,0,0,0,0,0,65,45,0,0,0,0,0,0,0,0,0,0,0,0,0,0,0,0,0,0,0,0,0,0,0,0,0,0,0,0,0,0,0,0,0,0,0,0,0,0,0,0,0,0,0,0,0,0,0,0,0,0,0,0,0,0,0,13.1,0.2146061,0,16.20404,0.1120428,0.002394991,8.091574,0.4349837,0,0
27.002,21.74799,5.90028,8.676105,-8.489227,-3.049652,-8.263306,90,90,1.007759,11.65608,21.74799,0.03366057,453.3559,4.407626,0.1247486,-0.2625557,1.283747,0.3164329,-37.39177,-33.8325,21.89522,-29.52684,97.25491,1.63,1527.5,36,19,0,49.80392,50.19608,1.383713,30.40186,0.65,17.78765,254.0595,343.9,16.85793,5.241172,2221,60,4051,0.97,1.284904,0.8398438,1.277584,0.8125,0,0,0,0,0,0,0,0,0,0,0,0,13.34,0,0,0,0,0,0,0,0,0,65,45,0,0,0,0,0,0,0,0,0,0,0,0,0,0,0,0,0,0,0,0,0,0,0,0,0,0,0,0,0,0,0,0,0,0,0,0,0,0,0,0,0,0,0,0,0,0,0,0,0,0,0,0,0,0,0,13.1,0.3048655,0,18.63111,0.1324909,0.003306539,9.447145,0.4640446,0,0
28.002,21.74799,5.90028,8.676105,-10.41412,-13.35872,8.870041,90,90,1.007759,11.65608,21.74799,0.03366057,453.3559,4.407626,1.198173,-0.357443,0.8549574,3.626279,-37.90087,-34.53282,24.01452,-28.10954,97.25491,1.63,1527.5,36,19,0,49.80392,50.19608,1.383713,30.40186,0.65,17.78765,254.0595,343.9,16.85793,5.241172,2221,60,4051,0.97,1.284904,0.8398438,1.277584,0.8125,0,0,0,0,0,0,0,0,0,0,0,0,13.34,0,0,0,0,0,0,0,0,0,65,45,0,0,0,0,0,0,0,0,0,0,0,0,0,0,0,0,0,0,0,0,0,0,0,0,0,0,0,0,0,0,0,0,0,0,0,0,0,0,0,0,0,0,0,0,0,0,0,0,0,0,0,0,0,0,0,13.1,0.3048655,0,18.63111,0.1324909,0.003306539,9.447145,0.4640446,0,0
29.002,27.34033,10.84827,8.690221,-6.084671,8.993774,-5.002533,90,90,1.245453,17.75736,27.34033,0.04777557,663.0441,8.103872,-1.417712,0.07123449,0.1113662,-5.637115,-34.92258,-31.631,14.46011,-32.68126,67.84314,1.61,1843.5,36,19,0,47.05882,47.45098,2.043273,36.24102,0.64,32.70442,310.6468,344,24.65514,5.247883,2221,60,4051,0.97,1.68116,1.53125,1.579656,1.367188,0,0,0,0,0,0,0,0,0,0,0,0,13.34,0,0,0,0,0,0,0,0,0,65,45,0,0,0,0,0,0,0,0,0,0,0,0,0,0,0,0,0,0,0,0,0,0,0,0,0,0,0,0,0,0,0,0,0,0,0,0,0,0,0,0,0,0,0,0,0,0,0,0,0,0,0,0,0,0,0,13.1,0.4163044,0,24.37682,0.1537939,0.004693082,11.55133,0.4941796,0,0
30.002,27.34033,10.84827,8.690221,-7.830276,59.3336,20.49661,90,90,1.245453,17.75736,27.34033,0.04777557,663.0441,8.103872,-0.1828255,-0.2148275,-1.137733,-1.174054,-38.16085,-32.56153,20.99256,-31.42807,67.84314,1.61,1843.5,36,19,0,47.05882,47.45098,2.043273,36.24102,0.64,32.70442,310.6468,344,24.65514,5.247883,2221,60,4051,0.97,1.68116,1.53125,1.579656,1.367188,0,0,0,0,0,0,0,0,0,0,0,0,13.34,0,0,0,0,0,0,0,0,0,65,45,0,0,0,0,0,0,0,0,0,0,0,0,0,0,0,0,0,0,0,0,0,0,0,0,0,0,0,0,0,0,0,0,0,0,0,0,0,0,0,0,0,0,0,0,0,0,0,0,0,0,0,0,0,0,0,13.1,0.4163044,0,24.37682,0.1537939,0.004693082,11.55133,0.4941796,0,0
31.002,30.44719,5.746646,8.698212,-17.86432,-8.890732,13.0462,90,90,1.09444,8.687902,30.44719,0.05576627,315.3937,4.292859,1.886387,-1.317681,1.581244,18.18568,-51.50954,-20.90715,52.12491,-26.04066,55.29412,1.38,1996,36,19,0,36.07843,36.47059,1.285654,33.63342,0.41,17.32449,311.8087,344.1,11.72784,5.250572,2221,60,4051,0.97,3.543856,2.785156,2.817224,2.476563,0,0,0,0,0,0,0,0,0,0,0,0,13.34,0,0,0,0,0,0,0,0,0,65,45,0,0,0,0,0,0,0,0,0,0,0,0,0,0,0,0,0,0,0,0,0,0,0,0,0,0,0,0,0,0,0,0,0,0,0,0,0,0,0,0,0,0,0,0,0,0,0,0,0,0,0,0,0,0,0,13.1,0.4390368,0,51.38591,0.1788477,0.005478022,11.59453,0.5241142,0,0
32.002,30.44719,5.746646,8.698212,-1.445892,15.73733,2.45253,90,90,1.09444,8.687902,30.44719,0.05576627,315.3937,4.292859,0.0640836,-0.8532549,0.8196566,13.05363,-47.03032,-22.92516,53.21949,-39.35913,55.29412,1.38,1996,36,19,0,36.07843,36.47059,1.285654,33.63342,0.41,17.32449,311.8087,344.3,11.72784,5.250572,2221,60,4051,0.97,3.543856,2.785156,2.817224,2.476563,0,0,0,0,0,0,0,0,0,0,0,0,13.34,0,0,0,0,0,0,0,0,0,65,45,0,0,0,0,0,0,0,0,0,0,0,0,0,0,0,0,0,0,0,0,0,0,0,0,0,0,0,0,0,0,0,0,0,0,0,0,0,0,0,0,0,0,0,0,0,0,0,0,0,0,0,0,0,0,0,13.1,0.4390368,0,51.38591,0.1788477,0.005478022,11.59453,0.5241142,0,0
33.002,30.44719,1.914581,8.700696,-21.52635,-9.518738,10.44635,90,90,0.3772739,4.612719,30.44719,0.05825083,105.0781,1.43023,-0.5297354,-0.07580626,-0.8112421,7.238828,-42.82386,-20.75664,39.78805,-43.66396,0,1.07,1252.5,31,19,0,14.90196,14.90196,0.4853923,16.36413,0.1,5.771913,287.244,344.4,3.907305,5.250031,2221,60,4051,0.97,15.9903,3.757813,15.9903,3.773438,0,0,0,0,0,0,0,0,0,0,0,0,13.34,0,0,0,0,0,0,0,0,0,65,45,0,0,0,0,0,0,0,0,0,0,0,0,0,0,0,0,0,0,0,0,0,0,0,0,0,0,0,0,0,0,0,0,0,0,0,0,0,0,0,0,0,0,0,0,0,0,0,0,0,0,0,0,0,0,0,14.9,0.423319,0,231.8593,0.2027922,0.005722085,10.6811,0.5592864,0,0
34.002,30.44719,1.914581,8.700696,1.321854,-11.56499,-3.342117,90,90,0.3772739,4.612719,30.44719,0.05825083,105.0781,1.43023,-0.577835,0.7841347,-0.2047341,5.308837,-37.98107,-22.77369,30.07798,-45.07722,0,1.07,1252.5,31,19,0,14.90196,14.90196,0.4853923,16.36413,0.1,5.771913,287.244,344.5,3.907305,5.250031,2221,60,4051,0.97,15.9903,3.757813,15.9903,3.773438,0,0,0,0,0,0,0,0,0,0,0,0,13.34,0,0,0,0,0,0,0,0,0,65,45,0,0,0,0,0,0,0,0,0,0,0,0,0,0,0,0,0,0,0,0,0,0,0,0,0,0,0,0,0,0,0,0,0,0,0,0,0,0,0,0,0,0,0,0,0,0,0,0,0,0,0,0,0,0,0,14.9,0.423319,0,231.8593,0.2027922,0.005722085,10.6811,0.5592864,0,0
35.003,21.74799,0,8.700696,-1.932587,-5.319885,-10.56406,90,90,-0.9298607,0,30.44719,0.05825083,0,0,0.2015202,0.1165838,0.3999292,7.328224,-39.05414,-25.26885,31.94141,-44.55161,0,1.01,1133.5,31,19,0,14.90196,14.90196,0.4715345,14.20874,0.04,0,261.0711,344.6,0,5.2483,2221,60,4051,0.97,12.4806,3.539063,15.9903,3.773438,0,0,0,0,0,0,0,0,0,0,0,0,13.34,0,0,0,0,0,0,0,0,0,65,45,0,0,0,0,0,0,0,0,0,0,0,0,0,0,0,0,0,0,0,0,0,0,0,0,0,0,0,0,0,0,0,0,0,0,0,0,0,0,0,0,0,0,0,0,0,0,0,0,0,0,0,0,0,0,0,14.9,0.2219439,0,180.9687,0.2231224,0.005722085,9.70787,0.5883419,0,0
36.003,21.74799,0,8.700696,10.52225,24.43019,-29.72733,90,90,-0.9298607,0,30.44719,0.05825083,0,0,-1.6817,-1.511518,-1.918617,7.417131,-37.86133,-30.79655,30.46502,-32.12784,0,1.01,1133.5,31,19,0,14.90196,14.90196,0.4715345,14.20874,0.04,0,261.0711,344.5,0,5.2483,2221,60,4051,0.97,12.4806,3.539063,15.9903,3.773438,0,0,0,0,0,0,0,0,0,0,0,0,13.34,0,0,0,0,0,0,0,0,0,65,45,0,0,0,0,0,0,0,0,0,0,0,0,0,0,0,0,0,0,0,0,0,0,0,0,0,0,0,0,0,0,0,0,0,0,0,0,0,0,0,0,0,0,0,0,0,0,0,0,0,0,0,0,0,0,0,14.9,0.2219439,0,180.9687,0.2231224,0.005722085,9.70787,0.5883419,0,0
37.003,14.29154,0,8.700696,-19.86772,-34.70094,-27.20572,90,90,-1.855893,0,30.44719,0.05825083,0,0,2.551604,1.094475,1.171005,11.24467,-39.01176,-29.27227,39.11319,-33.32545,16.86275,1,911.5,31,19,0,14.90196,14.90196,0.4520878,11.31278,0.03,0,248.2762,344.5,0,5.247321,2221,60,4051,0.97,3.553128,2.699219,3.619008,2.785156,0,0,0,0,0,0,0,0,0,0,0,0,13.34,0,0,0,0,0,0,0,0,0,65,45,0,0,0,0,0,0,0,0,0,0,0,0,0,0,0,0,0,0,0,0,0,0,0,0,0,0,0,0,0,0,0,0,0,0,0,0,0,0,0,0,0,0,0,0,0,0,0,0,0,0,0,0,0,0,0,13.1,0.08471478,0,51.52036,0.2346211,0.005722085,9.232091,0.6191788,0,0
38.003,6.213712,0.3247612,8.70114,-9.227768,-13.36891,-3.882416,90,90,-1.907849,1.066955,30.44719,0.05869539,87.3371,0.2426031,1.064821,-0.3183241,0.1771288,1.640993,-42.20431,-28.90955,32.30973,-32.94997,21.56863,1,918.5,31,19,0,14.90196,14.90196,0.5816429,11.39966,0.03,0.9790621,244.8402,344.4,3.24761,5.247154,2221,60,4051,0.97,3.165656,2.566406,2.9768,2.542969,0,0,0,0,0,0,0,0,0,0,0,0,13.34,0,0,0,0,0,0,0,0,0,65,45,0,0,0,0,0,0,0,0,0,0,0,0,0,0,0,0,0,0,0,0,0,0,0,0,0,0,0,0,0,0,0,0,0,0,0,0,0,0,0,0,0,0,0,0,0,0,0,0,0,0,0,0,0,0,0,13.1,-0.04558303,0,45.90201,0.2397294,0.005765756,9.104324,0.6486063,0,0
39.004,6.213712,0.3247612,8.70114,-0.6518402,1.998077,-2.422546,90,90,-1.907849,1.066955,30.44719,0.05869539,87.3371,0.2426031,-0.2973976,0.2462866,-0.6252989,-0.6424287,-43.15989,-29.09352,28.65751,-31.27248,21.56863,1,918.5,31,19,0,14.90196,14.90196,0.5816429,11.39966,0.03,0.9790621,244.8402,344.5,3.24761,5.247154,2221,60,4051,0.97,3.165656,2.566406,2.9768,2.542969,0,0,0,0,0,0,0,0,0,0,0,0,13.34,0,0,0,0,0,0,0,0,0,65,45,0,0,0,0,0,0,0,0,0,0,0,0,0,0,0,0,0,0,0,0,0,0,0,0,0,0,0,0,0,0,0,0,0,0,0,0,0,0,0,0,0,0,0,0,0,0,0,0,0,0,0,0,0,0,0,13.1,-0.04558303,0,45.90201,0.2397294,0.005765756,9.104324,0.6486063,0,0
40.003,6.213712,0.3247612,8.70114,-4.861328,-2.274338,2.992706,90,90,-1.907849,1.066955,30.44719,0.05869539,87.3371,0.2426031,0.03232979,0.192197,-0.3018726,-0.5240863,-42.50709,-29.1835,28.61421,-30.83522,21.56863,1,918.5,31,19,0,14.90196,14.90196,0.5816429,11.39966,0.03,0.9790621,244.8402,344.4,3.24761,5.247154,2221,60,4051,0.97,3.165656,2.566406,2.9768,2.542969,0,0,0,0,0,0,0,0,0,0,0,0,13.34,0,0,0,0,0,0,0,0,0,65,45,0,0,0,0,0,0,0,0,0,0,0,0,0,0,0,0,0,0,0,0,0,0,0,0,0,0,0,0,0,0,0,0,0,0,0,0,0,0,0,0,0,0,0,0,0,0,0,0,0,0,0,0,0,0,0,13.1,-0.04558303,0,45.90201,0.2397294,0.005765756,9.104324,0.6486063,0,0
41.003,6.213712,0.3247612,8.70114,-2.417252,-13.23993,6.011093,90,90,-1.907849,1.066955,30.44719,0.05869539,87.3371,0.2426031,0.3729394,0.1191314,-0.266418,2.260147,-41.37632,-30.30639,30.29572,-29.90468,21.56863,1,918.5,31,19,0,14.90196,14.90196,0.5816429,11.39966,0.03,0.9790621,244.8402,344.4,3.24761,5.247154,2221,60,4051,0.97,3.165656,2.566406,2.9768,2.542969,0,0,0,0,0,0,0,0,0,0,0,0,13.34,0,0,0,0,0,0,0,0,0,65,45,0,0,0,0,0,0,0,0,0,0,0,0,0,0,0,0,0,0,0,0,0,0,0,0,0,0,0,0,0,0,0,0,0,0,0,0,0,0,0,0,0,0,0,0,0,0,0,0,0,0,0,0,0,0,0,13.1,-0.04558303,0,45.90201,0.2397294,0.005765756,9.104324,0.6486063,0,0
42.003,0,0.5328132,8.701836,8.143875,-39.66786,6.494003,90,91,-1.780633,1.662683,30.44719,0.05939002,0,0.398022,1.203423,1.377151,-2.025877,9.219164,-38.43723,-34.35812,31.18413,-28.6265,25.4902,1.01,967,31,19,0,14.90196,14.90196,0.7403729,12.12162,0.04,1.606279,247.7377,344.4,0,5.247573,2241,60,4051,0.97,3.357928,2.644531,3.298392,2.683594,0,0,0,0,0,0,0,0,0,0,0,0,13.04,0,0,0,0,0,0,0,0,0,73,43,0,0,0,0,0,0,0,0,0,0,0,0,0,0,0,0,0,0,0,0,0,0,0,0,0,0,0,0,0,0,0,0,0,0,0,0,0,0,0,0,0,0,0,0,0,0,0,0,0,0,0,0,0,0,0,13.1,-0.2205596,0,48.68996,0.2397294,0.00583399,9.21207,0.7029976,1,3E-06
43.004,0,1.203421,8.70477,4.196579,9.141312,-13.52132,90,91,-0.798817,3.814535,30.44719,0.06232444,0,0.8989792,-1.11639,0.5940576,-0.5770501,-0.5139702,-38.84673,-30.6926,28.95477,-40.63347,34.11765,1,952,31,19,0,36.07843,38.03922,1.343987,11.81543,0.03,3.627969,259.9783,344.3,0,5.249343,2241,60,4051,0.97,1.60064,1.378906,1.5982,1.382813,0,0,0,0,0,0,0,0,0,0,0,0,13.04,0,0,0,0,0,0,0,0,0,73,43,0,0,0,0,0,0,0,0,0,0,0,0,0,0,0,0,0,0,0,0,0,0,0,0,0,0,0,0,0,0,0,0,0,0,0,0,0,0,0,0,0,0,0,0,0,0,0,0,0,0,0,0,0,0,0,13.1,-0.3068656,0,23.20928,0.2397294,0.006122244,9.667231,0.7320907,1,1.745563
44.004,0,1.203421,8.70477,-3.871841,-8.760742,4.595383,90,91,-0.798817,3.814535,30.44719,0.06232444,0,0.8989792,1.318056,-0.139345,0.2233305,1.363001,-43.03539,-28.43257,42.59402,-34.91376,34.11765,1,952,31,19,0,36.07843,38.03922,1.343987,11.81543,0.03,3.627969,259.9783,344.2,0,5.249343,2241,60,4051,0.97,1.60064,1.378906,1.5982,1.382813,0,0,0,0,0,0,0,0,0,0,0,0,13.04,0,0,0,0,0,0,0,0,0,73,43,0,0,0,0,0,0,0,0,0,0,0,0,0,0,0,0,0,0,0,0,0,0,0,0,0,0,0,0,0,0,0,0,0,0,0,0,0,0,0,0,0,0,0,0,0,0,0,0,0,0,0,0,0,0,0,13.1,-0.3068656,0,23.20928,0.2397294,0.006122244,9.667231,0.7320907,1,1.745563
45.004,4.97097,2.134995,8.707557,-6.557709,-11.01443,2.204391,90,91,0.6398261,3.816676,30.44719,0.06511124,717.6974,1.594883,0.3741679,0.1367716,0.1157134,-1.120166,-44.55169,-27.69479,28.37001,-30.27823,70.58823,1.28,1688,31,19,0,39.60784,40,1.809497,26.81607,0.31,6.436397,267.3001,344.2,26.68741,5.250695,2241,60,4051,0.98,1.511824,1.289063,1.525,1.292969,0,0,0,0,0,0,0,0,0,0,0,0,13.04,0,0,0,0,0,0,0,0,0,73,43,0,0,0,0,0,0,0,0,0,0,0,0,0,0,0,0,0,0,0,0,0,0,0,0,0,0,0,0,0,0,0,0,0,0,0,0,0,0,0,0,0,0,0,0,0,0,0,0,0,0,0,0,0,0,0,13.4,-0.2747948,0,21.92145,0.2435885,0.006395996,9.939493,0.7622309,1,3.553991
46.004,4.97097,2.134995,8.707557,-15.22844,-13.84187,-0.1669159,90,91,0.6398261,3.816676,30.44719,0.06511124,717.6974,1.594883,-1.018471,0.4003603,0.1894471,-7.396796,-40.92662,-26.85437,20.0788,-32.29561,70.58823,1.28,1688,31,19,0,39.60784,40,1.809497,26.81607,0.31,6.436397,267.3001,344.3,26.68741,5.250695,2241,60,4051,0.98,1.511824,1.289063,1.525,1.292969,0,0,0,0,0,0,0,0,0,0,0,0,13.04,0,0,0,0,0,0,0,0,0,73,43,0,0,0,0,0,0,0,0,0,0,0,0,0,0,0,0,0,0,0,0,0,0,0,0,0,0,0,0,0,0,0,0,0,0,0,0,0,0,0,0,0,0,0,0,0,0,0,0,0,0,0,0,0,0,0,13.4,-0.2747948,0,21.92145,0.2435885,0.006395996,9.939493,0.7622309,1,3.553991
47.004,11.18468,4.917216,8.714138,6.498825,7.141418,-12.97845,90,91,1.410491,9.833114,30.44719,0.07169271,734.6516,3.673258,-0.3940246,0.5892429,0.1350106,-5.196517,-42.13019,-28.68558,22.53275,-31.43355,84.31373,1.43,1509,31,19,0,45.4902,45.88235,1.136035,26.78169,0.45,14.824,283.8197,344.3,27.31785,5.253896,2241,60,4051,0.97,1.377624,1.058594,1.394704,1.074219,0,0,0,0,0,0,0,0,0,0,0,0,13.04,0,0,0,0,0,0,0,0,0,73,43,0,0,0,0,0,0,0,0,0,0,0,0,0,0,0,0,0,0,0,0,0,0,0,0,0,0,0,0,0,0,0,0,0,0,0,0,0,0,0,0,0,0,0,0,0,0,0,0,0,0,0,0,0,0,0,13.4,-0.2263193,0,19.97555,0.2525995,0.007042506,10.55377,0.7913147,1,5.299017
48.004,11.18468,4.917216,8.714138,2.553116,0.7879791,-0.5550385,90,91,1.410491,9.833114,30.44719,0.07169271,734.6516,3.673258,-0.1752631,0.07192577,0.3033855,-5.875855,-42.00058,-28.82337,21.73594,-31.17014,84.31373,1.43,1509,31,19,0,45.4902,45.88235,1.136035,26.78169,0.45,14.824,283.8197,344.3,27.31785,5.253896,2241,60,4051,0.97,1.377624,1.058594,1.394704,1.074219,0,0,0,0,0,0,0,0,0,0,0,0,13.04,0,0,0,0,0,0,0,0,0,73,43,0,0,0,0,0,0,0,0,0,0,0,0,0,0,0,0,0,0,0,0,0,0,0,0,0,0,0,0,0,0,0,0,0,0,0,0,0,0,0,0,0,0,0,0,0,0,0,0,0,0,0,0,0,0,0,13.4,-0.2263193,0,19.97555,0.2525995,0.007042506,10.55377,0.7913147,1,5.299017
49.004,18.64114,9.794661,8.726863,1.858368,-6.308914,0.7187653,90,91,1.729529,13.41031,30.44719,0.08441724,878.0167,7.316805,-0.3061455,-0.2350243,0.4328701,-6.545755,-41.16992,-28.33477,20.83929,-31.27213,61.17647,1.61,2204,38,19,0,43.92157,44.31372,2.119235,44.04029,0.64,29.5281,316.0697,344.3,32.64884,5.260332,2241,60,4051,0.97,1.31272,0.875,1.317112,0.8945313,0,0,0,0,0,0,0,0,0,0,0,0,13.04,0,0,0,0,0,0,0,0,0,73,43,0,0,0,0,0,0,0,0,0,0,0,0,0,0,0,0,0,0,0,0,0,0,0,0,0,0,0,0,0,0,0,0,0,0,0,0,0,0,0,0,0,0,0,0,0,0,0,0,0,0,0,0,0,0,0,13.1,-0.1779797,0,19.03444,0.2670842,0.008292459,11.75298,0.8276641,1,5.299017
50.004,18.64114,9.794661,8.726863,-14.67761,-9.600174,-0.02832031,90,91,1.729529,13.41031,30.44719,0.08441724,878.0167,7.316805,-0.4021099,-0.0788385,-0.7309818,-7.596295,-40.23845,-28.1377,19.70745,-30.87169,61.17647,1.61,2204,38,19,0,43.92157,44.31372,2.119235,44.04029,0.64,29.5281,316.0697,344.3,32.64884,5.260332,2241,60,4051,0.97,1.31272,0.875,1.317112,0.8945313,0,0,0,0,0,0,0,0,0,0,0,0,13.04,0,0,0,0,0,0,0,0,0,73,43,0,0,0,0,0,0,0,0,0,0,0,0,0,0,0,0,0,0,0,0,0,0,0,0,0,0,0,0,0,0,0,0,0,0,0,0,0,0,0,0,0,0,0,0,0,0,0,0,0,0,0,0,0,0,0,13.1,-0.1779797,0,19.03444,0.2670842,0.008292459,11.75298,0.8276641,1,5.299017
51.004,23.6121,3.883774,8.733224,2.638519,-0.2358704,6.572647,90,91,1.465393,7.317926,30.44719,0.09077874,274.8559,2.901256,-0.1930778,-0.284763,0.4374218,-5.221466,-40.53354,-29.46214,21.25522,-30.73853,89.41177,1.37,1601.5,38,19,0,43.13726,43.52941,0.8111799,26.61818,0.4,11.70847,312.7727,344.3,10.22045,5.262192,2241,60,4051,0.97,1.41764,1.109375,1.414712,1.105469,0,0,0,0,0,0,0,0,0,0,0,0,13.04,0,0,0,0,0,0,0,0,0,73,43,0,0,0,0,0,0,0,0,0,0,0,0,0,0,0,0,0,0,0,0,0,0,0,0,0,0,0,0,0,0,0,0,0,0,0,0,0,0,0,0,0,0,0,0,0,0,0,0,0,0,0,0,0,0,0,13.1,-0.1521286,0,20.55578,0.2902386,0.008917361,11.63038,0.8567273,1,5.299017
52.004,23.6121,3.883774,8.733224,-0.06982422,0.1973419,5.310013,90,91,1.465393,7.317926,30.44719,0.09077874,274.8559,2.901256,-0.350197,0.227791,-0.4286858,-5.819454,-39.88457,-27.79876,20.44465,-32.25139,89.41177,1.37,1601.5,38,19,0,43.13726,43.52941,0.8111799,26.61818,0.4,11.70847,312.7727,344.3,10.22045,5.262192,2241,60,4051,0.97,1.41764,1.109375,1.414712,1.105469,0,0,0,0,0,0,0,0,0,0,0,0,13.04,0,0,0,0,0,0,0,0,0,73,43,0,0,0,0,0,0,0,0,0,0,0,0,0,0,0,0,0,0,0,0,0,0,0,0,0,0,0,0,0,0,0,0,0,0,0,0,0,0,0,0,0,0,0,0,0,0,0,0,0,0,0,0,0,0,0,13.1,-0.1521286,0,20.55578,0.2902386,0.008917361,11.63038,0.8567273,1,5.299017
53.004,26.71896,6.796364,8.742057,-12.70901,-18.79906,8.116745,90,91,0.9055957,11.43182,30.44719,0.0996119,425.0527,5.077018,-1.737883,-0.907481,-0.6257092,-7.880559,-38.76939,-27.55305,17.705,-32.69254,45.88235,1.08,1794,38,19,0,41.96078,42.35294,1.336639,23.50591,0.11,20.48909,320.2708,344.3,15.80549,5.26574,2241,60,4051,0.97,1.992992,2.101563,1.907104,2.019531,0,0,0,0,0,0,0,0,0,0,0,0,13.04,0,0,0,0,0,0,0,0,0,73,43,0,0,0,0,0,0,0,4,0,0,0,0,0,0,0,0,0,0,0,0,0,0,0,0,0,0,0,0,0,0,0,0,0,0,0,0,0,0,0,0,0,0,0,0,0,0,0,0,0,0,0,0,0,0,0,13.1,-0.07231531,0,28.89838,0.311024,0.009785059,11.90919,0.8868354,1,5.299017
54.004,29.20445,3.282138,8.74649,19.91968,18.98492,-10.27116,90,91,0.7084568,7.804701,30.44719,0.1040444,187.7992,2.451822,-0.1490617,0.2205006,0.5467176,-6.05896,-40.61686,-29.00718,21.35672,-31.12584,47.45098,1.25,1269,38,19,0,37.64706,38.03922,1.122918,19.24431,0.28,9.894707,311.0751,344.3,6.983268,5.26641,2241,60,4051,0.97,0.942816,-0.4101563,1.001376,-0.01171875,0,0,0,0,0,0,0,0,0,0,0,0,13.04,0,0,0,0,0,0,0,0,0,73,43,0,0,0,0,0,0,0,4,0,0,0,0,0,0,0,0,0,0,0,0,0,0,0,0,0,0,0,0,0,0,0,0,0,0,0,0,0,0,0,0,0,0,0,0,0,0,0,0,0,0,0,0,0,0,0,13.1,0.1755349,0,13.67083,0.3344672,0.01022047,11.56725,0.9155709,1,5.299017
55.004,29.20445,3.282138,8.74649,6.35379,-5.34317,4.585083,90,91,0.7084568,7.804701,30.44719,0.1040444,187.7992,2.451822,0.8139642,0.6198208,1.682354,-2.76906,-41.92785,-31.7897,23.61552,-29.87337,47.45098,1.25,1269,38,19,0,37.64706,38.03922,1.122918,19.24431,0.28,9.894707,311.0751,344.3,6.983268,5.26641,2241,60,4051,0.97,0.942816,-0.4101563,1.001376,-0.01171875,0,0,0,0,0,0,0,0,0,0,0,0,13.04,0,0,0,0,0,0,0,0,0,73,43,0,0,0,0,0,0,0,4,0,0,0,0,0,0,0,0,0,0,0,0,0,0,0,0,0,0,0,0,0,0,0,0,0,0,0,0,0,0,0,0,0,0,0,0,0,0,0,0,0,0,0,0,0,0,0,13.1,0.1755349,0,13.67083,0.3344672,0.01022047,11.56725,0.9155709,1,5.299017
56.004,29.20445,3.282138,8.74649,-8.191467,-11.69142,5.205276,90,91,0.7084568,7.804701,30.44719,0.1040444,187.7992,2.451822,-1.066551,-0.09051503,-0.1890395,-6.835284,-39.79023,-30.51513,18.15292,-32.33995,47.45098,1.25,1269,38,19,0,37.64706,38.03922,1.122918,19.24431,0.28,9.894707,311.0751,344.3,6.983268,5.26641,2241,60,4051,0.97,0.942816,-0.4101563,1.001376,-0.01171875,0,0,0,0,0,0,0,0,0,0,0,0,13.04,0,0,0,0,0,0,0,0,0,73,43,0,0,0,0,0,0,0,4,0,0,0,0,0,0,0,0,0,0,0,0,0,0,0,0,0,0,0,0,0,0,0,0,0,0,0,0,0,0,0,0,0,0,0,0,0,0,0,0,0,0,0,0,0,0,0,13.1,0.1755349,0,13.67083,0.3344672,0.01022047,11.56725,0.9155709,1,5.299017
57.006,30.44719,1.820782,8.748852,-14.75508,-20.217,12.88243,90,91,0.4684913,4.091126,30.44719,0.1064069,99.93012,1.36016,-0.7504718,-0.001300235,-0.5542313,-5.455837,-41.18002,-30.56465,19.087,-31.5215,44.31372,0.81,1343,34,19,0,36.47059,36.86274,0.8515503,13.1975,-0.16,5.489135,297.0342,344.3,3.715878,5.265807,2241,60,4051,0.97,0.94428,-0.3867188,0.993568,-0.04296875,0,0,0,0,0,0,0,0,0,0,0,0,13.04,0,0,0,0,0,0,0,0,0,73,43,0,0,0,0,0,0,0,4,0,0,0,0,0,0,0,0,0,0,0,0,0,0,0,0,0,0,0,0,0,0,0,0,0,0,0,0,0,0,0,0,0,0,0,0,0,0,0,0,0,0,0,0,0,0,0,13.1,0.3925616,0,13.69206,0.3582311,0.01045254,11.04515,0.9505693,1,5.299017
58.004,31.68993,2.884583,8.75338,-15.71906,-11.22658,9.348907,90,91,0.2912667,7.296316,31.68993,0.1109348,152.1064,2.154841,0.8540388,-0.5337697,1.089508,-2.236798,-42.6762,-31.90776,23.25876,-28.82036,23.92157,1.28,1193,34,19,0,38.03922,38.43137,1.347438,18.76724,0.31,8.696192,285.9102,344.4,5.656041,5.265994,2241,60,4051,0.97,1.472296,1.195313,1.425936,1.132813,0,0,0,0,0,0,0,0,0,0,0,0,13.04,0,0,0,0,0,0,0,0,0,73,43,0,0,0,0,0,0,0,0,0,0,0,0,0,0,0,0,0,0,0,0,0,0,0,0,0,0,0,0,0,0,0,0,0,0,0,0,0,0,0,0,0,0,0,0,0,0,0,0,0,0,0,0,0,0,0,13.1,0.6153581,0,21.34829,0.3880057,0.01089733,10.6315,0.979601,1,5.299017
59.004,31.68993,2.884583,8.75338,7.435211,-5.214478,-0.05628967,90,91,0.2912667,7.296316,31.68993,0.1109348,152.1064,2.154841,0.7326549,0.6396902,-0.3448583,-4.286143,-42.34608,-31.69526,21.80896,-29.64986,23.92157,1.28,1193,34,19,0,38.03922,38.43137,1.347438,18.76724,0.31,8.696192,285.9102,344.4,5.656041,5.265994,2241,60,4051,0.97,1.472296,1.195313,1.425936,1.132813,0,0,0,0,0,0,0,0,0,0,0,0,13.04,0,0,0,0,0,0,0,0,0,73,43,0,0,0,0,0,0,0,0,0,0,0,0,0,0,0,0,0,0,0,0,0,0,0,0,0,0,0,0,0,0,0,0,0,0,0,0,0,0,0,0,0,0,0,0,0,0,0,0,0,0,0,0,0,0,0,13.1,0.6153581,0,21.34829,0.3880057,0.01089733,10.6315,0.979601,1,5.299017
60.004,31.68993,2.884583,8.75338,1.090393,4.36319,1.529343,90,91,0.2912667,7.296316,31.68993,0.1109348,152.1064,2.154841,0.2925973,-0.3443765,-0.3275904,-5.013527,-41.65728,-31.08292,20.83936,-29.95587,23.92157,1.28,1193,34,19,0,38.03922,38.43137,1.347438,18.76724,0.31,8.696192,285.9102,344.4,5.656041,5.265994,2241,60,4051,0.97,1.472296,1.195313,1.425936,1.132813,0,0,0,0,0,0,0,0,0,0,0,0,13.04,0,0,0,0,0,0,0,0,0,73,43,0,0,0,0,0,0,0,0,0,0,0,0,0,0,0,0,0,0,0,0,0,0,0,0,0,0,0,0,0,0,0,0,0,0,0,0,0,0,0,0,0,0,0,0,0,0,0,0,0,0,0,0,0,0,0,13.1,0.6153581,0,21.34829,0.3880057,0.01089733,10.6315,0.979601,1,5.299017
61.004,32.93267,1.065649,8.754765,-7.341705,-4.464767,-0.8343353,90,91,0.2926486,2.814616,32.93267,0.1123196,54.07208,0.7960612,-0.2327744,0.4116267,0.6698131,-6.169837,-41.64112,-30.61646,19.81231,-30.6526,80.78432,1.24,1142.5,34,19,0,36.86274,36.86274,1.038064,17.41117,0.27,3.212627,271.6391,344.4,2.010658,5.264657,2260,60,4051,0.97,1.312232,0.8828125,1.30052,0.8671875,0,0,0,0,0,0,0,0,0,0,0,0,13.04,0,0,0,0,0,0,0,0,0,83,39,0,0,0,0,0,0,0,0,0,0,0,0,0,0,0,0,0,0,0,0,0,0,0,0,0,0,0,0,0,0,0,0,0,0,0,0,0,0,0,0,0,0,0,0,0,0,0,0,0,0,0,0,0,0,0,13.1,0.8072181,0,19.02736,0.4134883,0.01103336,10.10084,1.0178,1,5.299017
62.004,34.17542,2.336114,8.758796,3.008682,4.291367,-3.615585,90,91,0.2807487,5.989334,34.17542,0.1163504,114.2262,1.745123,0.003799981,-0.01941833,0.1225646,-5.529085,-41.69941,-31.18703,20.99167,-29.55147,70.19608,1.14,1177,34,19,0,36.47059,36.86274,0.7036402,16.49041,0.17,7.042714,259.2621,344.5,4.247477,5.264077,2260,60,4051,0.97,1.27612,0.8164063,1.274168,0.8164063,0,0,0,0,0,0,0,0,0,0,0,0,13.04,0,0,0,0,0,0,0,0,0,83,39,0,0,0,0,0,0,0,0,0,0,0,0,0,0,0,0,0,0,0,0,0,0,0,0,0,0,0,0,0,0,0,0,0,0,0,0,0,0,0,0,0,0,0,0,0,0,0,0,0,0,0,0,0,0,0,13.1,0.8312712,0,18.50374,0.4487753,0.01142931,9.6406,1.047207,1,5.299017
63.004,34.17542,2.336114,8.758796,-1.273376,0.7604218,3.078903,90,91,0.2807487,5.989334,34.17542,0.1163504,114.2262,1.745123,0.469718,-0.6073096,-0.06350277,-5.653999,-41.72255,-30.96063,20.57133,-29.65083,70.19608,1.14,1177,34,19,0,36.47059,36.86274,0.7036402,16.49041,0.17,7.042714,259.2621,344.5,4.247477,5.264077,2260,60,4051,0.97,1.27612,0.8164063,1.274168,0.8164063,0,0,0,0,0,0,0,0,0,0,0,0,13.04,0,0,0,0,0,0,0,0,0,83,39,0,0,0,0,0,0,0,0,0,0,0,0,0,0,0,0,0,0,0,0,0,0,0,0,0,0,0,0,0,0,0,0,0,0,0,0,0,0,0,0,0,0,0,0,0,0,0,0,0,0,0,0,0,0,0,13.1,0.8312712,0,18.50374,0.4487753,0.01142931,9.6406,1.047207,1,5.299017
64.006,34.79679,2.818882,8.762444,0.6994171,9.38739,-8.393372,90,91,0.1998984,7.073802,34.79679,0.1199985,135.3703,2.105761,-0.1614523,-0.5124842,-0.4646935,-5.138517,-42.19846,-30.928,21.54826,-29.04144,81.96078,1.19,1202.5,32,19,0,34.11765,34.11765,0.9484787,17.58661,0.22,8.498123,252.1474,344.5,5.033715,5.263961,2260,60,4051,0.97,1.423008,1.101563,1.410808,1.09375,0,0,0,0,0,0,0,0,0,0,0,0,13.04,0,0,0,0,0,0,0,0,0,83,39,0,0,0,0,0,0,0,0,0,0,0,0,0,0,0,0,0,0,0,0,0,0,0,0,0,0,0,0,0,0,0,0,0,0,0,0,0,0,0,0,0,0,0,0,0,0,0,0,0,0,0,0,0,0,0,13.1,0.7192325,0,20.63362,0.4759061,0.01178767,9.376043,1.082156,1,5.299017
65.004,34.79679,2.818882,8.762444,-1.191422,16.97502,-1.993836,90,91,0.1998984,7.073802,34.79679,0.1199985,135.3703,2.105761,-0.6715176,-1.047052,-0.2907185,-5.245908,-41.86924,-31.16864,19.80549,-29.17596,81.96078,1.19,1202.5,32,19,0,34.11765,34.11765,0.9484787,17.58661,0.22,8.498123,252.1474,344.5,5.033715,5.263961,2260,60,4051,0.97,1.423008,1.101563,1.410808,1.09375,0,0,0,0,0,0,0,0,0,0,0,0,13.04,0,0,0,0,0,0,0,0,0,83,39,0,0,0,0,0,0,0,0,0,0,0,0,0,0,0,0,0,0,0,0,0,0,0,0,0,0,0,0,0,0,0,0,0,0,0,0,0,0,0,0,0,0,0,0,0,0,0,0,0,0,0,0,0,0,0,13.1,0.7192325,0,20.63362,0.4759061,0.01178767,9.376043,1.082156,1,5.299017
66.005,35.41816,3.07062,8.767282,-1.177536,-9.211517,14.90677,90,91,0.1458492,7.570171,35.41816,0.1248365,144.8725,2.293814,-0.2954099,-0.2979558,2.109448,-5.68658,-41.99625,-31.08862,19.09895,-29.01765,72.54902,1.12,1224,32,19,0,32.15686,31.76471,0.8604739,16.95847,0.15,9.25704,245.2023,344.5,5.387049,5.264043,2260,60,4051,0.97,1.418616,1.09375,1.410808,1.085938,0,0,0,0,0,0,0,0,0,0,0,0,13.04,0,0,0,0,0,0,0,0,0,83,39,0,0,0,0,0,0,0,0,0,0,0,0,0,0,0,0,0,0,0,0,0,0,0,0,0,0,0,0,0,0,0,0,0,0,0,0,0,0,0,0,0,0,0,0,0,0,0,0,0,0,0,0,0,0,0,13.1,0.5783429,0,20.56993,0.5091164,0.01226292,9.117789,1.111619,1,5.299017
67.005,35.41816,3.07062,8.767282,-3.654892,1.306046,-1.208679,90,91,0.1458492,7.570171,35.41816,0.1248365,144.8725,2.293814,0.3553103,0.1970128,-0.5331054,-7.226521,-40.55397,-29.92906,19.22451,-29.73701,72.54902,1.12,1224,32,19,0,32.15686,31.76471,0.8604739,16.95847,0.15,9.25704,245.2023,344.5,5.387049,5.264043,2260,60,4051,0.97,1.418616,1.09375,1.410808,1.085938,0,0,0,0,0,0,0,0,0,0,0,0,13.04,0,0,0,0,0,0,0,0,0,83,39,0,0,0,0,0,0,0,0,0,0,0,0,0,0,0,0,0,0,0,0,0,0,0,0,0,0,0,0,0,0,0,0,0,0,0,0,0,0,0,0,0,0,0,0,0,0,0,0,0,0,0,0,0,0,0,13.1,0.5783429,0,20.56993,0.5091164,0.01226292,9.117789,1.111619,1,5.299017
68.005,36.03953,2.5991,8.770722,-1.956085,9.06897,0.5998688,90,91,0.144707,6.452515,36.03953,0.1282768,120.5118,1.941579,0.8776221,-1.529722,-1.001662,-5.474476,-41.35215,-31.06209,20.80743,-28.81943,67.05882,1.09,1215.5,32,19,0,30.98039,31.37255,0.8083748,16.38961,0.12,7.835542,238.5991,344.5,4.481203,5.263686,2260,60,4051,0.97,1.66408,1.484375,1.61528,1.453125,0,0,0,0,0,0,0,0,0,0,0,0,13.04,0,0,0,0,0,0,0,0,0,83,39,0,0,0,0,0,0,0,0,0,0,0,0,0,0,0,0,0,0,0,0,0,0,0,0,0,0,0,0,0,0,0,0,0,0,0,0,0,0,0,0,0,0,0,0,0,0,0,0,0,0,0,0,0,0,0,13.1,0.4022682,0,24.12916,0.5376251,0.01260087,8.872251,1.141697,1,5.299017
69.005,36.03953,2.5991,8.770722,-16.7271,-26.53898,11.45348,90,91,0.144707,6.452515,36.03953,0.1282768,120.5118,1.941579,0.02332127,-0.9701978,0.1832528,-7.904571,-40.54787,-30.44592,18.80582,-30.01814,67.05882,1.09,1215.5,32,19,0,30.98039,31.37255,0.8083748,16.38961,0.12,7.835542,238.5991,344.7,4.481203,5.263686,2260,60,4051,0.97,1.66408,1.484375,1.61528,1.453125,0,0,0,0,0,0,0,0,0,0,0,0,13.04,0,0,0,0,0,0,0,0,0,83,39,0,0,0,0,0,0,0,0,0,0,0,0,0,0,0,0,0,0,0,0,0,0,0,0,0,0,0,0,0,0,0,0,0,0,0,0,0,0,0,0,0,0,0,0,0,0,0,0,0,0,0,0,0,0,0,13.1,0.4022682,0,24.12916,0.5376251,0.01260087,8.872251,1.141697,1,5.299017
70.005,36.03953,2.447555,8.774005,42.5414,22.35965,-11.46419,90,91,0.07849035,6.051397,36.03953,0.1315598,113.4851,1.828372,-1.612221,-0.3571147,1.686637,-9.3908,-40.39093,-30.37434,16.66537,-30.94,65.09804,1.09,1220.5,32,19,0,32.54902,32.54902,0.8293241,16.45703,0.12,7.378676,232.1278,344.8,4.219919,5.263181,2260,60,4051,0.97,1.549888,1.324219,1.543544,1.324219,0,0,0,0,0,0,0,0,0,0,0,0,13.04,0,0,0,0,0,0,0,0,0,83,39,0,0,0,0,0,0,0,0,0,0,0,0,0,0,0,0,0,0,0,0,0,0,0,0,0,0,0,0,0,0,0,0,0,0,0,0,0,0,0,0,0,0,0,0,0,0,0,0,0,0,0,0,0,0,0,13.1,0.3009623,0,22.47338,0.566756,0.01292336,8.631618,1.170698,1,5.299017
71.005,36.03953,2.447555,8.774005,11.17212,6.17067,-5.073639,90,91,0.07849035,6.051397,36.03953,0.1315598,113.4851,1.828372,0.274322,-1.57827,1.13299,-4.793922,-43.01532,-31.88541,22.69316,-28.68655,65.09804,1.09,1220.5,32,19,0,32.54902,32.54902,0.8293241,16.45703,0.12,7.378676,232.1278,344.9,4.219919,5.263181,2260,60,4051,0.97,1.549888,1.324219,1.543544,1.324219,0,0,0,0,0,0,0,0,0,0,0,0,13.04,0,0,0,0,0,0,0,0,0,83,39,0,0,0,0,0,0,0,0,0,0,0,0,0,0,0,0,0,0,0,0,0,0,0,0,0,0,0,0,0,0,0,0,0,0,0,0,0,0,0,0,0,0,0,0,0,0,0,0,0,0,0,0,0,0,0,13.1,0.3009623,0,22.47338,0.566756,0.01292336,8.631618,1.170698,1,5.299017
72.005,36.03953,2.518891,8.777286,-3.972107,-2.884476,-5.085617,90,91,-7.21645E-16,6.169638,36.03953,0.1348405,116.7928,1.881661,-1.245692,1.03047,-0.03706779,-8.220672,-40.8872,-30.13807,17.74441,-30.60721,65.09804,1.15,1232,32,19,0,32.15686,32.15686,0.8756014,17.52652,0.18,7.593735,226.7513,345,4.342912,5.26278,2260,60,4051,0.97,1.53964,1.308594,1.52988,1.3125,0,0,0,0,0,0,0,0,0,0,0,0,13.04,0,0,0,0,0,0,0,0,0,83,39,0,0,0,0,0,0,0,0,0,0,0,0,0,0,0,0,0,0,0,0,0,0,0,0,0,0,0,0,0,0,0,0,0,0,0,0,0,0,0,0,0,0,0,0,0,0,0,0,0,0,0,0,0,0,0,13.1,0.2211491,0,22.32478,0.5946627,0.01324563,8.431695,1.205684,1,5.299017
73.005,36.03953,2.518891,8.777286,-9.345001,-3.421066,5.633087,90,91,-7.21645E-16,6.169638,36.03953,0.1348405,116.7928,1.881661,-0.1458976,0.08548155,-0.562126,-6.482272,-42.36263,-31.95498,20.35991,-29.75896,65.09804,1.15,1232,32,19,0,32.15686,32.15686,0.8756014,17.52652,0.18,7.593735,226.7513,345.1,4.342912,5.26278,2260,60,4051,0.97,1.53964,1.308594,1.52988,1.3125,0,0,0,0,0,0,0,0,0,0,0,0,13.04,0,0,0,0,0,0,0,0,0,83,39,0,0,0,0,0,0,0,0,0,0,0,0,0,0,0,0,0,0,0,0,0,0,0,0,0,0,0,0,0,0,0,0,0,0,0,0,0,0,0,0,0,0,0,0,0,0,0,0,0,0,0,0,0,0,0,13.1,0.2211491,0,22.32478,0.5946627,0.01324563,8.431695,1.205684,1,5.299017
74.005,36.6609,2.337881,8.780935,-0.4931183,3.595733,13.96347,90,91,0.06620019,5.696229,36.6609,0.1384898,106.5627,1.746444,0.8866087,-0.3014573,-1.14124,-6.107221,-40.9894,-30.63746,20.97194,-30.80225,60.39216,1.12,1238.5,32,19,0,30.58824,30.58824,0.8050941,17.15937,0.15,7.048043,220.1582,345.2,3.962508,5.262051,2260,60,4051,0.97,1.571848,1.34375,1.565992,1.355469,0,0,0,0,0,0,0,0,0,0,0,0,13.04,0,0,0,0,0,0,0,0,0,83,39,0,0,0,0,0,0,0,0,0,0,0,0,0,0,0,0,0,0,0,0,0,0,0,0,0,0,0,0,0,0,0,0,0,0,0,0,0,0,0,0,0,0,0,0,0,0,0,0,0,0,0,0,0,0,0,13.1,0.172511,0,22.7918,0.6290467,0.01360411,8.18653,1.234834,1,5.299017
75.005,36.6609,2.119384,8.7837,15.20074,15.48064,-13.84402,90,91,0.06620019,5.178498,36.6609,0.1412547,96.60339,1.583222,-0.2668287,0.391491,-0.6807812,-5.729031,-42.0643,-31.39725,21.27647,-28.83719,56.07843,1.09,1235,32,19,0,29.01961,29.41176,0.782593,16.65255,0.12,6.389337,214.767,345.1,3.592174,5.261277,2260,60,4051,0.97,1.521096,1.273438,1.519632,1.296875,0,0,0,0,0,0,0,0,0,0,0,0,13.04,0,0,0,0,0,0,0,0,0,83,39,0,0,0,0,0,0,0,0,0,0,0,0,0,0,0,0,0,0,0,0,0,0,0,0,0,0,0,0,0,0,0,0,0,0,0,0,0,0,0,0,0,0,0,0,0,0,0,0,0,0,0,0,0,0,0,13.1,0.1406908,0,22.05589,0.6577116,0.01387571,7.986059,1.26461,1,5.299017
76.005,36.6609,2.119384,8.7837,16.12381,2.61702,4.082504,90,91,0.06620019,5.178498,36.6609,0.1412547,96.60339,1.583222,1.086884,-0.4182034,-1.191604,-5.845158,-42.38939,-30.32463,21.25799,-29.92305,56.07843,1.09,1235,32,19,0,29.01961,29.41176,0.782593,16.65255,0.12,6.389337,214.767,345.1,3.592174,5.261277,2260,60,4051,0.97,1.521096,1.273438,1.519632,1.296875,0,0,0,0,0,0,0,0,0,0,0,0,13.04,0,0,0,0,0,0,0,0,0,83,39,0,0,0,0,0,0,0,0,0,0,0,0,0,0,0,0,0,0,0,0,0,0,0,0,0,0,0,0,0,0,0,0,0,0,0,0,0,0,0,0,0,0,0,0,0,0,0,0,0,0,0,0,0,0,0,13.1,0.1406908,0,22.05589,0.6577116,0.01387571,7.986059,1.26461,1,5.299017
77.005,36.6609,2.146909,8.786582,19.5914,16.50627,-14.10521,90,91,-7.21645E-16,5.189029,36.6609,0.1441371,97.85797,1.603783,0.8936628,0.1936512,-1.345097,-3.50407,-43.39311,-31.16743,23.42496,-28.50987,63.52941,1.14,1248.5,32,19,0,30.58824,29.41176,0.8561573,17.60681,0.17,6.472315,209.7543,345.2,3.638826,5.260507,2260,60,4051,0.97,1.587464,1.371094,1.596248,1.410156,0,0,0,0,0,0,0,0,0,0,0,0,13.04,0,0,0,0,0,0,0,0,0,83,39,0,0,0,0,0,0,0,0,0,0,0,0,0,0,0,0,0,0,0,0,0,0,0,0,0,0,0,0,0,0,0,0,0,0,0,0,0,0,0,0,0,0,0,0,0,0,0,0,0,0,0,0,0,0,0,13.1,0.1142577,0,23.01823,0.6871712,0.01415885,7.799664,1.293696,1,5.299017
78.005,36.6609,2.146909,8.786582,-15.70294,-21.78233,27.11841,90,91,-7.21645E-16,5.189029,36.6609,0.1441371,97.85797,1.603783,0.9027737,-0.8167087,-0.4261293,-4.209988,-42.68085,-30.92139,22.37806,-29.62524,63.52941,1.14,1248.5,32,19,0,30.58824,29.41176,0.8561573,17.60681,0.17,6.472315,209.7543,345.2,3.638826,5.260507,2260,60,4051,0.97,1.587464,1.371094,1.596248,1.410156,0,0,0,0,0,0,0,0,0,0,0,0,13.04,0,0,0,0,0,0,0,0,0,83,39,0,0,0,0,0,0,0,0,0,0,0,0,0,0,0,0,0,0,0,0,0,0,0,0,0,0,0,0,0,0,0,0,0,0,0,0,0,0,0,0,0,0,0,0,0,0,0,0,0,0,0,0,0,0,0,13.1,0.1142577,0,23.01823,0.6871712,0.01415885,7.799664,1.293696,1,5.299017
79.005,36.6609,2.146909,8.786582,-10.57901,-19.25471,11.8371,90,91,-7.21645E-16,5.189029,36.6609,0.1441371,97.85797,1.603783,1.150941,-0.321829,2.068918,-0.3654155,-42.56112,-32.31823,27.14422,-28.83397,63.52941,1.14,1248.5,32,19,0,30.58824,29.41176,0.8561573,17.60681,0.17,6.472315,209.7543,345.3,3.638826,5.260507,2260,60,4051,0.97,1.587464,1.371094,1.596248,1.410156,0,0,0,0,0,0,0,0,0,0,0,0,13.04,0,0,0,0,0,0,0,0,0,83,39,0,0,0,0,0,0,0,0,0,0,0,0,0,0,0,0,0,0,0,0,0,0,0,0,0,0,0,0,0,0,0,0,0,0,0,0,0,0,0,0,0,0,0,0,0,0,0,0,0,0,0,0,0,0,0,13.1,0.1142577,0,23.01823,0.6871712,0.01415885,7.799664,1.293696,1,5.299017
80.005,36.6609,1.972878,8.789189,10.47427,22.82617,-29.24828,90,90,-7.21645E-16,4.855912,36.6609,0.1467438,89.92549,1.473779,-0.1802941,-1.297447,0.372204,2.288531,-43.85371,-30.52031,29.82208,-26.48672,49.01961,1.05,1226,31,18,0,19.21569,19.21569,0.6869729,15.92454,0.08,5.947662,204.8987,345.4,3.343858,5.259612,2280,60,4052,0.97,4.392,2.925781,4.373456,2.988281,0,0,0,0,0,0,0,0,0,0,0,0,13.06,0,0,0,0,0,0,0,0,0,78,38,0,0,0,0,0,0,0,0,0,0,0,0,0,0,0,0,0,0,0,0,0,0,0,0,0,0,0,0,0,0,0,0,0,0,0,0,0,0,0,0,0,0,0,0,0,0,0,0,0,0,0,0,0,0,0,13.1,0.08216111,0,63.684,0.7161775,0.01441491,7.619109,1.346572,1,5.299017
81.005,36.6609,1.972878,8.789189,-7.212616,-15.17325,6.896103,90,90,-7.21645E-16,4.855912,36.6609,0.1467438,89.92549,1.473779,-1.368304,1.374642,0.4087092,-4.518402,-40.5013,-31.37561,21.8809,-32.04582,49.01961,1.05,1226,31,18,0,19.21569,19.21569,0.6869729,15.92454,0.08,5.947662,204.8987,345.5,3.343858,5.259612,2280,60,4052,0.97,4.392,2.925781,4.373456,2.988281,0,0,0,0,0,0,0,0,0,0,0,0,13.06,0,0,0,0,0,0,0,0,0,78,38,0,0,0,0,0,0,0,0,0,0,0,0,0,0,0,0,0,0,0,0,0,0,0,0,0,0,0,0,0,0,0,0,0,0,0,0,0,0,0,0,0,0,0,0,0,0,0,0,0,0,0,0,0,0,0,13.1,0.08216111,0,63.684,0.7161775,0.01441491,7.619109,1.346572,1,5.299017
82.007,34.79679,1.271199,8.79218,13.38019,15.04533,-22.15408,90,90,-0.1324433,3.284216,36.6609,0.1497351,61.04641,0.9496109,1.813797,-1.207538,-0.3342121,1.102407,-44.68774,-32.50227,29.54758,-27.10229,36.86274,1.03,1168,31,18,0,24.31373,23.92157,0.5822781,14.93114,0.06,3.832301,195.7027,345.5,2.269997,5.257261,2280,60,4052,0.97,2.034472,1.898438,2.026176,1.90625,0,0,0,0,0,0,0,0,0,0,0,0,13.06,0,0,0,0,0,0,0,0,0,78,38,0,0,0,0,0,0,0,0,0,0,0,0,0,0,0,0,0,0,0,0,0,0,0,0,0,0,0,0,0,0,0,0,0,0,0,0,0,0,0,0,0,0,0,0,0,0,0,0,0,0,0,0,0,0,0,13.1,0.03161928,0,29.49984,0.7651153,0.01470875,7.277158,1.375723,1,5.299017
83.006,34.79679,1.271199,8.79218,3.665176,0.747467,-9.456497,90,90,-0.1324433,3.284216,36.6609,0.1497351,61.04641,0.9496109,-0.4470411,-0.3061231,-0.1975995,-2.492764,-43.39581,-32.36699,24.55818,-28.50632,36.86274,1.03,1168,31,18,0,24.31373,23.92157,0.5822781,14.93114,0.06,3.832301,195.7027,345.6,2.269997,5.257261,2280,60,4052,0.97,2.034472,1.898438,2.026176,1.90625,0,0,0,0,0,0,0,0,0,0,0,0,13.06,0,0,0,0,0,0,0,0,0,78,38,0,0,0,0,0,0,0,0,0,0,0,0,0,0,0,0,0,0,0,0,0,0,0,0,0,0,0,0,0,0,0,0,0,0,0,0,0,0,0,0,0,0,0,0,0,0,0,0,0,0,0,0,0,0,0,13.1,0.03161928,0,29.49984,0.7651153,0.01470875,7.277158,1.375723,1,5.299017
84.006,34.79679,1.131809,8.793655,5.705215,8.191589,-3.508286,90,90,-0.1324433,2.924094,36.6609,0.1512105,54.35253,0.8454838,-0.08657939,-0.2719448,0.1113689,-2.668292,-43.24509,-31.54147,24.0277,-29.29942,48.62745,1.06,1168,31,18,0,29.41176,29.41176,0.7236356,15.36602,0.09,3.41208,190.8868,345.7,2.021086,5.255858,2280,60,4052,0.97,1.840248,1.695313,1.823168,1.707031,0,0,0,0,0,0,0,0,0,0,0,0,13.06,0,0,0,0,0,0,0,0,0,78,38,0,0,0,0,0,0,0,0,0,0,0,0,0,0,0,0,0,0,0,0,0,0,0,0,0,0,0,0,0,0,0,0,0,0,0,0,0,0,0,0,0,0,0,0,0,0,0,0,0,0,0,0,0,0,0,13.1,0.01569277,0,26.6836,0.7921475,0.01485368,7.09808,1.405488,1,5.299017
85.006,34.79679,1.131809,8.793655,17.17134,23.89651,-26.01147,90,90,-0.1324433,2.924094,36.6609,0.1512105,54.35253,0.8454838,0.1372736,-0.09321871,-0.6397839,-2.853,-42.6272,-31.18151,24.36318,-29.58644,48.62745,1.06,1168,31,18,0,29.41176,29.41176,0.7236356,15.36602,0.09,3.41208,190.8868,345.8,2.021086,5.255858,2280,60,4052,0.97,1.840248,1.695313,1.823168,1.707031,0,0,0,0,0,0,0,0,0,0,0,0,13.06,0,0,0,0,0,0,0,0,0,78,38,0,0,0,0,0,0,0,0,0,0,0,0,0,0,0,0,0,0,0,0,0,0,0,0,0,0,0,0,0,0,0,0,0,0,0,0,0,0,0,0,0,0,0,0,0,0,0,0,0,0,0,0,0,0,0,13.1,0.01569277,0,26.6836,0.7921475,0.01485368,7.09808,1.405488,1,5.299017
86.006,34.79679,1.688015,8.795929,6.462891,6.290283,-2.343781,90,90,-7.21645E-16,4.348054,36.6609,0.1534836,81.06302,1.26098,1.298633,-0.204825,0.7226827,-2.232705,-43.9361,-32.0392,25.48825,-28.70731,55.68628,1.12,1171.5,31,18,0,28.62745,28.23529,0.8181428,16.28445,0.15,5.088881,187.1053,345.8,3.014309,5.254839,2280,60,4052,0.97,1.719224,1.5625,1.719712,1.585938,0,0,0,0,0,0,0,0,0,0,0,0,13.06,0,0,0,0,0,0,0,0,0,78,38,0,0,0,0,0,0,0,0,0,0,0,0,0,0,0,0,0,0,0,0,0,0,0,0,0,0,0,0,0,0,0,0,0,0,0,0,0,0,0,0,0,0,0,0,0,0,0,0,0,0,0,0,0,0,0,13.1,0.002449447,0,24.92875,0.8203058,0.01507697,6.957467,1.434583,1,5.299017
87.006,34.79679,1.688015,8.795929,-6.205399,-5.098755,-0.5192261,90,90,-7.21645E-16,4.348054,36.6609,0.1534836,81.06302,1.26098,0.4322513,-0.4219223,-0.229588,-2.234593,-43.23641,-32.106,25.69791,-30.26846,55.68628,1.12,1171.5,31,18,0,28.62745,28.23529,0.8181428,16.28445,0.15,5.088881,187.1053,346.1,3.014309,5.254839,2280,60,4052,0.97,1.719224,1.5625,1.719712,1.585938,0,0,0,0,0,0,0,0,0,0,0,0,13.06,0,0,0,0,0,0,0,0,0,78,38,0,0,0,0,0,0,0,0,0,0,0,0,0,0,0,0,0,0,0,0,0,0,0,0,0,0,0,0,0,0,0,0,0,0,0,0,0,0,0,0,0,0,0,0,0,0,0,0,0,0,0,0,0,0,0,13.1,0.002449447,0,24.92875,0.8203058,0.01507697,6.957467,1.434583,1,5.299017
88.006,34.79679,1.941198,8.798445,26.59259,22.95697,-6.654434,90,90,-7.21645E-16,5.017346,36.6609,0.1559991,93.2216,1.450114,-0.3038345,0.7691769,1.593196,-2.355394,-42.87267,-32.78067,24.55861,-28.28401,55.68628,1.11,1167.5,32,18,0,32.15686,32.54902,0.8191373,16.08395,0.14,5.852157,184.1051,346.2,3.466423,5.25406,2280,60,4052,0.97,1.536224,1.300781,1.534272,1.308594,0,0,0,0,0,0,0,0,0,0,0,0,13.06,0,0,0,0,0,0,0,0,0,78,38,0,0,0,0,0,0,0,0,0,0,0,0,0,0,0,0,0,0,0,0,0,0,0,0,0,0,0,0,0,0,0,0,0,0,0,0,0,0,0,0,0,0,0,0,0,0,0,0,0,0,0,0,0,0,0,13.1,-0.01324862,0,22.27525,0.8473372,0.01532408,6.845906,1.469602,1,5.299017
89.008,34.79679,2.162863,8.801834,14.19029,2.648056,-2.295197,90,90,-7.21645E-16,5.49381,36.6609,0.1593888,103.8665,1.615702,-0.6258236,-0.6345238,0.9925719,-3.214357,-43.70226,-32.36399,23.89872,-28.73996,65.09804,1.15,1188,32,18,0,32.15686,32.15686,0.9188123,16.90058,0.18,6.520413,181.1283,346.3,3.862253,5.25333,2280,60,4052,0.97,1.497672,1.230469,1.49328,1.246094,0,0,0,0,0,0,0,0,0,0,0,0,13.06,0,0,0,0,0,0,0,0,0,78,38,0,0,0,0,0,0,0,0,0,0,0,0,0,0,0,0,0,0,0,0,0,0,0,0,0,0,0,0,0,0,0,0,0,0,0,0,0,0,0,0,0,0,0,0,0,0,0,0,0,0,0,0,0,0,0,13.1,-0.01324862,0,21.71624,0.8799775,0.01565705,6.735213,1.49875,1,5.299017
90.006,34.79679,2.162863,8.801834,-9.570526,-0.7620544,2.654617,90,90,-7.21645E-16,5.49381,36.6609,0.1593888,103.8665,1.615702,-0.09834143,-0.2023627,-1.055496,-5.048626,-42.53129,-30.67267,21.21746,-29.92624,65.09804,1.15,1188,32,18,0,32.15686,32.15686,0.9188123,16.90058,0.18,6.520413,181.1283,346.4,3.862253,5.25333,2280,60,4052,0.97,1.497672,1.230469,1.49328,1.246094,0,0,0,0,0,0,0,0,0,0,0,0,13.06,0,0,0,0,0,0,0,0,0,78,38,0,0,0,0,0,0,0,0,0,0,0,0,0,0,0,0,0,0,0,0,0,0,0,0,0,0,0,0,0,0,0,0,0,0,0,0,0,0,0,0,0,0,0,0,0,0,0,0,0,0,0,0,0,0,0,13.1,-0.01324862,0,21.71624,0.8799775,0.01565705,6.735213,1.49875,1,5.299017
91.006,34.79679,2.549377,8.805161,-2.786606,-1.560776,7.592666,90,90,-7.21645E-16,6.371004,36.6609,0.1627157,122.428,1.904435,-0.6032338,0.5375377,0.3011787,-3.414297,-43.27654,-31.6388,22.77818,-29.14563,71.76471,1.17,1207.5,32,18,0,36.47059,36.47059,0.9104424,17.47673,0.2,7.685641,179.4038,346.5,4.552455,5.253039,2280,60,4052,0.97,1.27612,0.7890625,1.261968,0.7617188,0,0,0,0,0,0,0,0,0,0,0,0,13.06,0,0,0,0,0,0,0,0,0,78,38,0,0,0,0,0,0,0,0,0,0,0,0,0,0,0,0,0,0,0,0,0,0,0,0,0,0,0,0,0,0,0,0,0,0,0,0,0,0,0,0,0,0,0,0,0,0,0,0,0,0,0,0,0,0,0,13.1,-0.01324862,0,18.50374,0.9069798,0.01598386,6.67109,1.529211,1,5.299017
92.006,34.79679,2.549377,8.805161,9.589355,7.123199,-2.326706,90,90,-7.21645E-16,6.371004,36.6609,0.1627157,122.428,1.904435,0.6884096,-0.3780679,-1.069669,-3.978055,-42.76015,-31.82497,22.15067,-30.26337,71.76471,1.17,1207.5,32,18,0,36.47059,36.47059,0.9104424,17.47673,0.2,7.685641,179.4038,346.6,4.552455,5.253039,2280,60,4052,0.97,1.27612,0.7890625,1.261968,0.7617188,0,0,0,0,0,0,0,0,0,0,0,0,13.06,0,0,0,0,0,0,0,0,0,78,38,0,0,0,0,0,0,0,0,0,0,0,0,0,0,0,0,0,0,0,0,0,0,0,0,0,0,0,0,0,0,0,0,0,0,0,0,0,0,0,0,0,0,0,0,0,0,0,0,0,0,0,0,0,0,0,13.1,-0.01324862,0,18.50374,0.9069798,0.01598386,6.67109,1.529211,1,5.299017
93.006,36.03953,2.711734,8.808867,-0.2889557,-5.567856,-0.3323975,90,90,0.1511217,6.699073,36.6609,0.1664212,125.7343,2.025719,0.6961061,0.5955438,0.437024,-1.610906,-44.15266,-32.96613,24.80857,-29.90741,61.56863,1.18,1221.5,32,18,0,30.58824,30.19608,0.8642749,17.83047,0.21,8.175102,177.6878,346.6,4.675401,5.252754,2280,60,4052,0.97,1.582584,1.375,1.5738,1.378906,0,0,0,0,0,0,0,0,0,0,0,0,13.06,0,0,0,0,0,0,0,0,0,78,38,0,0,0,0,0,0,0,0,0,0,0,0,0,0,0,0,0,0,0,0,0,0,0,0,0,0,0,0,0,0,0,0,0,0,0,0,0,0,0,0,0,0,0,0,0,0,0,0,0,0,0,0,0,0,0,13.1,0.003735686,0,22.94747,0.9365938,0.01634786,6.607278,1.55828,1,5.299017
94.006,36.03953,2.711734,8.808867,1.186569,-0.1750488,4.655411,90,90,0.1511217,6.699073,36.6609,0.1664212,125.7343,2.025719,0.1058943,-0.01818217,-0.4668905,-3.738271,-43.41182,-32.0861,21.44965,-30.2041,61.56863,1.18,1221.5,32,18,0,30.58824,30.19608,0.8642749,17.83047,0.21,8.175102,177.6878,346.7,4.675401,5.252754,2280,60,4052,0.97,1.582584,1.375,1.5738,1.378906,0,0,0,0,0,0,0,0,0,0,0,0,13.06,0,0,0,0,0,0,0,0,0,78,38,0,0,0,0,0,0,0,0,0,0,0,0,0,0,0,0,0,0,0,0,0,0,0,0,0,0,0,0,0,0,0,0,0,0,0,0,0,0,0,0,0,0,0,0,0,0,0,0,0,0,0,0,0,0,0,13.1,0.003735686,0,22.94747,0.9365938,0.01634786,6.607278,1.55828,1,5.299017
95.006,36.03953,1.976861,8.811428,27.47426,20.53841,-9.451309,90,90,0.1511217,4.899685,36.6609,0.1689825,91.66061,1.476754,-0.6082029,-0.1738949,-2.323171,-5.329476,-42.46462,-30.12693,17.03143,-30.25343,58.82353,1.08,1217.5,32,18,0,27.84314,27.05882,0.7259822,16.26597,0.11,5.959669,175.1899,346.8,3.408378,5.251925,2280,60,4052,0.97,1.657248,1.464844,1.655784,1.503906,0,0,0,0,0,0,0,0,0,0,0,0,13.06,0,0,0,0,0,0,0,0,0,78,38,0,0,0,0,0,0,0,0,0,0,0,0,0,0,0,0,0,0,0,0,0,0,0,0,0,0,0,0,0,0,0,0,0,0,0,0,0,0,0,0,0,0,0,0,0,0,0,0,0,0,0,0,0,0,0,13.1,0.003735686,0,24.0301,0.9645675,0.01659946,6.514396,1.593351,1,5.299017
96.006,36.03953,1.976861,8.811428,6.842667,15.23024,-16.82661,90,90,0.1511217,4.899685,36.6609,0.1689825,91.66061,1.476754,-0.0465389,-0.637612,-1.028834,-4.043834,-44.62885,-33.87415,22.52373,-30.05115,58.82353,1.08,1217.5,32,18,0,27.84314,27.05882,0.7259822,16.26597,0.11,5.959669,175.1899,346.9,3.408378,5.251925,2280,60,4052,0.97,1.657248,1.464844,1.655784,1.503906,0,0,0,0,0,0,0,0,0,0,0,0,13.06,0,0,0,0,0,0,0,0,0,78,38,0,0,0,0,0,0,0,0,0,0,0,0,0,0,0,0,0,0,0,0,0,0,0,0,0,0,0,0,0,0,0,0,0,0,0,0,0,0,0,0,0,0,0,0,0,0,0,0,0,0,0,0,0,0,0,13.1,0.003735686,0,24.0301,0.9645675,0.01659946,6.514396,1.593351,1,5.299017
97.007,36.03953,2.103935,8.81474,-0.4795838,-4.167221,3.140442,90,90,-7.21645E-16,5.238304,36.6609,0.1722951,97.55261,1.571681,0.7947645,0.004538604,0.448534,-5.04436,-43.73267,-31.4052,22.55606,-29.27356,55.68628,1.08,1212,32,18,0,29.01961,29.41176,0.8113627,16.19249,0.11,6.342761,172.5827,347.1,3.627471,5.251058,2280,60,4052,0.97,1.792912,1.652344,1.777296,1.652344,0,0,0,0,0,0,0,0,0,0,0,0,13.06,0,0,0,0,0,0,0,0,0,78,38,0,0,0,0,0,0,0,0,0,0,0,0,0,0,0,0,0,0,0,0,0,0,0,0,0,0,0,0,0,0,0,0,0,0,0,0,0,0,0,0,0,0,0,0,0,0,0,0,0,0,0,0,0,0,0,13.1,0.003735686,0,25.99722,0.9983333,0.01692486,6.417448,1.623154,1,5.299017
98.007,36.03953,2.103935,8.81474,-3.475266,-0.9436341,1.604416,90,90,-7.21645E-16,5.238304,36.6609,0.1722951,97.55261,1.571681,-0.08247551,0.3922012,-0.3287226,-6.177157,-42.91641,-29.63659,20.07964,-30.06476,55.68628,1.08,1212,32,18,0,29.01961,29.41176,0.8113627,16.19249,0.11,6.342761,172.5827,347.1,3.627471,5.251058,2280,60,4052,0.97,1.792912,1.652344,1.777296,1.652344,0,0,0,0,0,0,0,0,0,0,0,0,13.06,0,0,0,0,0,0,0,0,0,78,38,0,0,0,0,0,0,0,0,0,0,0,0,0,0,0,0,0,0,0,0,0,0,0,0,0,0,0,0,0,0,0,0,0,0,0,0,0,0,0,0,0,0,0,0,0,0,0,0,0,0,0,0,0,0,0,13.1,0.003735686,0,25.99722,0.9983333,0.01692486,6.417448,1.623154,1,5.299017
99.007,36.03953,2.05855,8.817496,1.608429,12.2951,-6.892105,90,90,-7.21645E-16,5.118972,36.6609,0.1750507,95.44829,1.537778,1.502946,0.6693829,-0.06985311,-4.098068,-43.51137,-31.06598,22.98235,-29.08186,58.82353,1.1,1213.5,32,18,0,29.80392,29.41176,0.8423906,16.51276,0.13,6.20594,170.3838,347.1,3.549222,5.250256,2299,60,4052,0.97,1.699704,1.53125,1.701656,1.554688,0,0,0,0,0,0,0,0,0,0,0,0,13.06,0,0,0,0,0,0,0,0,0,78,36,0,0,0,0,0,0,0,0,0,0,0,0,0,0,0,0,0,0,0,0,0,0,0,0,0,0,0,0,0,0,0,0,0,0,0,0,0,0,0,0,0,0,0,0,0,0,0,0,0,0,0,0,0,0,0,13.1,0.003735686,0,24.64571,1.027391,0.01719555,6.335681,1.660677,1,5.299017
100.009,36.03953,2.05855,8.817496,11.70901,1.712845,0.4181366,90,90,-7.21645E-16,5.118972,36.6609,0.1750507,95.44829,1.537778,0.3128668,0.283016,1.130045,-6.098435,-43.04287,-30.09292,20.71019,-29.07486,58.82353,1.1,1213.5,32,18,0,29.80392,29.41176,0.8423906,16.51276,0.13,6.20594,170.3838,347.1,3.549222,5.250256,2299,60,4052,0.97,1.699704,1.53125,1.701656,1.554688,0,0,0,0,0,0,0,0,0,0,0,0,13.06,0,0,0,0,0,0,0,0,0,78,36,0,0,0,0,0,0,0,0,0,0,0,0,0,0,0,0,0,0,0,0,0,0,0,0,0,0,0,0,0,0,0,0,0,0,0,0,0,0,0,0,0,0,0,0,0,0,0,0,0,0,0,0,0,0,0,13.1,0.003735686,0,24.64571,1.027391,0.01719555,6.335681,1.660677,1,5.299017
101.007,36.03953,2.413843,8.821559,4.9086,-4.709656,9.106201,90,90,-7.21645E-16,5.997532,36.6609,0.1791135,111.9221,1.803189,-0.6645322,0.7442502,1.09576,-7.009339,-42.67464,-30.18926,19.94095,-29.96924,66.66666,1.1,1214.5,32,18,0,32.94118,32.54902,0.9339444,16.52637,0.13,7.277046,168.3872,347.2,4.161796,5.249622,2299,60,4052,0.97,1.608936,1.410156,1.598688,1.410156,0,0,0,0,0,0,0,0,0,0,0,0,13.06,0,0,0,0,0,0,0,0,0,78,36,0,0,0,0,0,0,0,0,0,0,0,0,0,0,0,0,0,0,0,0,0,0,0,0,0,0,0,0,0,0,0,0,0,0,0,0,0,0,0,0,0,0,0,0,0,0,0,0,0,0,0,0,0,0,0,13.1,0.03022435,0,23.32957,1.0637,0.01759465,6.261438,1.689859,1,5.299017
102.007,36.03953,2.413843,8.821559,-1.366577,22.8824,69.88733,90,90,-7.21645E-16,5.997532,36.6609,0.1791135,111.9221,1.803189,-0.4164093,-2.025173,1.588715,0.6609553,-49.47667,-23.01849,37.76339,-29.25453,66.66666,1.1,1214.5,32,18,0,32.94118,32.54902,0.9339444,16.52637,0.13,7.277046,168.3872,347.3,4.161796,5.249622,2299,60,4052,0.97,1.608936,1.410156,1.598688,1.410156,0,0,0,0,0,0,0,0,0,0,0,0,13.06,0,0,0,0,0,0,0,0,0,78,36,0,0,0,0,0,0,0,0,0,0,0,0,0,0,0,0,0,0,0,0,0,0,0,0,0,0,0,0,0,0,0,0,0,0,0,0,0,0,0,0,0,0,0,0,0,0,0,0,0,0,0,0,0,0,0,13.1,0.03022435,0,23.32957,1.0637,0.01759465,6.261438,1.689859,1,5.299017
103.007,36.03953,2.610807,8.824941,7.697296,-22.24303,-16.48999,90,90,-7.21645E-16,6.420832,36.6609,0.1824954,121.0546,1.950325,0.9970779,-0.3742191,0.02515963,9.010628,-44.763,-19.15971,38.39018,-30.97078,66.27451,1.16,1227,33,18,0,14.90196,14.90196,0.8905768,17.60718,0.19,7.870837,167.1807,347.2,4.501389,5.24929,2299,60,4052,0.97,4.21144,2.925781,2.734264,2.460938,0,0,0,0,0,0,0,0,0,0,0,0,13.06,0,0,0,0,0,0,0,0,0,78,36,0,0,0,0,0,0,0,0,0,0,0,0,0,0,0,0,0,0,0,0,0,0,0,0,0,0,0,0,0,0,0,0,0,0,0,0,0,0,0,0,0,0,0,0,0,0,0,0,0,0,0,0,0,0,0,14.2,0.03022435,0,61.06588,1.091606,0.01792686,6.216575,1.72527,1,5.299017
104.007,36.03953,2.610807,8.824941,19.67726,-5.037491,10.07416,90,90,-7.21645E-16,6.420832,36.6609,0.1824954,121.0546,1.950325,-1.660334,-0.6409717,1.661773,1.692703,-40.91979,-23.00121,28.83653,-32.82838,66.27451,1.16,1227,33,18,0,14.90196,14.90196,0.8905768,17.60718,0.19,7.870837,167.1807,347.2,4.501389,5.24929,2299,60,4052,0.97,4.21144,2.925781,2.734264,2.460938,0,0,0,0,0,0,0,0,0,0,0,0,13.06,0,0,0,0,0,0,0,0,0,78,36,0,0,0,0,0,0,0,0,0,0,0,0,0,0,0,0,0,0,0,0,0,0,0,0,0,0,0,0,0,0,0,0,0,0,0,0,0,0,0,0,0,0,0,0,0,0,0,0,0,0,0,0,0,0,0,14.2,0.03022435,0,61.06588,1.091606,0.01792686,6.216575,1.72527,1,5.299017
105.007,35.41816,1.577056,8.827497,-5.348511,-9.187073,-9.311127,90,90,-0.06433754,4.127421,36.6609,0.1850514,74.40581,1.178092,-0.619867,-0.1716928,-0.3461651,-1.867684,-37.8331,-28.21528,19.53513,-32.86948,0,1.02,1153,33,18,0,14.90196,14.90196,0.5373777,14.50093,0.05,4.754372,164.3753,347.2,2.766762,5.247941,2299,60,4052,0.97,15.9903,3.75,15.68432,3.742188,0,0,0,0,0,0,0,0,0,0,0,0,13.06,0,0,0,0,0,0,0,0,0,78,36,0,0,0,0,0,0,0,0,0,0,0,0,0,0,0,0,0,0,0,0,0,0,0,0,0,0,0,0,0,0,0,0,0,0,0,0,0,0,0,0,0,0,0,0,0,0,0,0,0,0,0,0,0,0,0,14.2,0.01735684,0,231.8593,1.125786,0.01817794,6.112257,1.755131,1,5.299017
106.007,35.41816,1.577056,8.827497,2.728592,-3.519379,-6.09433,90,90,-0.06433754,4.127421,36.6609,0.1850514,74.40581,1.178092,-0.7946793,0.1468912,2.620933,0.9127644,-41.16809,-30.41874,20.73939,-30.24913,0,1.02,1153,33,18,0,14.90196,14.90196,0.5373777,14.50093,0.05,4.754372,164.3753,347.3,2.766762,5.247941,2299,60,4052,0.97,15.9903,3.75,15.68432,3.742188,0,0,0,0,0,0,0,0,0,0,0,0,13.06,0,0,0,0,0,0,0,0,0,78,36,0,0,0,0,0,0,0,0,0,0,0,0,0,0,0,0,0,0,0,0,0,0,0,0,0,0,0,0,0,0,0,0,0,0,0,0,0,0,0,0,0,0,0,0,0,0,0,0,0,0,0,0,0,0,0,14.2,0.01735684,0,231.8593,1.125786,0.01817794,6.112257,1.755131,1,5.299017
107.009,30.44719,0,8.827497,-1.833893,1.783707,5.74588,90,90,-0.6894379,0,36.6609,0.1850514,0,0,0.1852531,0.4029183,-1.676697,1.600736,-40.45216,-31.62733,20.12759,-30.29965,0,1.02,1120,33,18,0,14.90196,14.90196,1.107157,14.0859,0.05,0,160.9171,347.2,0,5.245913,2299,60,4052,0.97,15.9903,3.839844,15.9903,3.925781,0,0,0,0,0,0,0,0,0,0,0,0,13.06,0,0,0,0,0,0,0,0,0,78,36,0,0,0,0,0,0,0,0,0,0,0,0,0,0,0,0,0,0,0,0,0,0,0,0,0,0,0,0,0,0,0,0,0,0,0,0,0,0,0,0,0,0,0,0,0,0,0,0,0,0,0,0,0,0,0,14.5,-0.1076632,0,231.8593,1.14998,0.01817794,5.983666,1.785344,1,5.299017
108.007,19.26251,0,8.827497,14.35649,13.56483,11.07085,90,90,-2.018539,0,36.6609,0.1850514,0,0,0.651552,0.8140264,-2.214635,-0.08558351,-40.07402,-31.04227,18.68403,-30.32883,0,0.99,980,33,18,0,14.90196,14.90196,0.6292677,11.96266,0.02,0,158.784,347.2,0,5.244617,2299,60,4052,0.97,4.710664,2.988281,5.856,3.246094,0,0,0,0,0,0,0,0,0,0,0,0,13.06,0,0,0,0,0,0,0,0,0,78,36,0,0,0,0,0,0,0,0,0,0,0,0,0,0,0,0,0,0,0,0,0,0,0,0,0,0,0,0,0,0,0,0,0,0,0,0,0,0,0,0,0,0,0,0,0,0,0,0,0,0,0,0,0,0,0,14.5,-0.386351,0,68.30463,1.165429,0.01817794,5.904344,1.81651,1,5.299017
109.007,19.26251,0,8.827497,6.293488,-4.77327,16.65909,90,90,-2.018539,0,36.6609,0.1850514,0,0,0.9669098,0.04000729,-1.293541,0.876063,-43.67796,-31.66219,22.32846,-28.27097,0,0.99,980,33,18,0,14.90196,14.90196,0.6292677,11.96266,0.02,0,158.784,347.1,0,5.244617,2299,60,4052,0.97,4.710664,2.988281,5.856,3.246094,0,0,0,0,0,0,0,0,0,0,0,0,13.06,0,0,0,0,0,0,0,0,0,78,36,0,0,0,0,0,0,0,0,0,0,0,0,0,0,0,0,0,0,0,0,0,0,0,0,0,0,0,0,0,0,0,0,0,0,0,0,0,0,0,0,0,0,0,0,0,0,0,0,0,0,0,0,0,0,0,14.5,-0.386351,0,68.30463,1.165429,0.01817794,5.904344,1.81651,1,5.299017
110.007,19.26251,0,8.827497,19.15712,-15.90108,-47.4761,90,90,-2.018539,0,36.6609,0.1850514,0,0,-1.536128,0.5874542,0.9753689,2.758322,-39.3119,-36.00071,18.85394,-28.58511,0,0.99,980,33,18,0,14.90196,14.90196,0.6292677,11.96266,0.02,0,158.784,347,0,5.244617,2299,60,4052,0.97,4.710664,2.988281,5.856,3.246094,0,0,0,0,0,0,0,0,0,0,0,0,13.06,0,0,0,0,0,0,0,0,0,78,36,0,0,0,0,0,0,0,0,0,0,0,0,0,0,0,0,0,0,0,0,0,0,0,0,0,0,0,0,0,0,0,0,0,0,0,0,0,0,0,0,0,0,0,0,0,0,0,0,0,0,0,0,0,0,0,14.5,-0.386351,0,68.30463,1.165429,0.01817794,5.904344,1.81651,1,5.299017
111.007,8.077826,0,8.827497,4.170395,8.019196,-13.84546,90,90,-2.716118,0,36.6609,0.1850514,0,0,-0.8658787,-1.026941,-1.975868,-1.997525,-36.65615,-35.63636,13.68973,-36.73434,24.70588,1,907.5,28,18,0,14.90196,14.90196,0.5470274,11.18956,0.03,0,157.8594,346.8,0,5.244046,2299,60,4052,0.97,2.81332,2.414063,2.87676,2.496094,0,0,0,0,0,0,0,0,0,0,0,0,13.06,0,0,0,0,0,0,0,0,0,78,36,0,0,0,0,0,0,0,0,0,0,0,0,0,0,0,0,0,0,0,0,0,0,0,0,0,0,0,0,0,0,0,0,0,0,0,0,0,0,0,0,0,0,0,0,0,0,0,0,0,0,0,0,0,0,0,13.4,-0.6508868,0,40.79314,1.172254,0.01817794,5.869967,1.851624,1,5.299017
112.007,4.349598,0.5300469,8.828325,-1.720917,4.540665,1.741348,90,90,-1.719623,1.599467,36.6609,0.1858804,203.6343,0.3959556,-1.045946,0.2941869,0.1970965,-6.091386,-44.37669,-37.05246,17.72918,-32.37971,18.82353,1.01,1000,28,18,0,14.90196,14.90196,0.6443764,12.66016,0.04,1.59794,158.0164,346.8,7.572093,5.244196,2299,60,4052,0.97,2.896768,2.449219,2.87676,2.5,0,0,0,0,0,0,0,0,0,0,0,0,13.06,0,0,0,0,0,0,0,0,0,78,36,0,0,0,0,0,0,0,0,0,0,0,0,0,0,0,0,0,0,0,0,0,0,0,0,0,0,0,0,0,0,0,0,0,0,0,0,0,0,0,0,0,0,0,0,0,0,0,0,0,0,0,0,0,0,0,13.4,-0.7604999,0,42.00314,1.176337,0.01825937,5.875801,1.882074,1,5.299017
113.007,4.349598,0.5300469,8.828325,6.939743,-0.07666016,9.082596,90,90,-1.719623,1.599467,36.6609,0.1858804,203.6343,0.3959556,0.7489908,0.2578341,-1.457226,1.262254,-39.64942,-35.28989,22.39269,-37.27016,18.82353,1.01,1000,28,18,0,14.90196,14.90196,0.6443764,12.66016,0.04,1.59794,158.0164,346.7,7.572093,5.244196,2299,60,4052,0.97,2.896768,2.449219,2.87676,2.5,0,0,0,0,0,0,0,0,0,0,0,0,13.06,0,0,0,0,0,0,0,0,0,78,36,0,0,0,0,0,0,0,0,0,0,0,0,0,0,0,0,0,0,0,0,0,0,0,0,0,0,0,0,0,0,0,0,0,0,0,0,0,0,0,0,0,0,0,0,0,0,0,0,0,0,0,0,0,0,0,13.4,-0.7604999,0,42.00314,1.176337,0.01825937,5.875801,1.882074,1,5.299017
114.008,1.242742,0.3928263,8.828862,1.807587,27.49294,1.750549,90,90,-0.7758066,1.228384,36.6609,0.1864171,528.2083,0.293449,-0.5961257,1.103291,-0.2672799,0.1433742,-45.02586,-22.27026,29.44358,-37.554,36.07843,1.02,965,28,18,0,14.90196,18.82353,0.568816,12.33801,0.05,1.184259,158.3355,346.6,19.6413,5.24443,2299,60,4052,0.97,1.140944,0.453125,1.18096,0.5625,0,0,0,0,0,0,0,0,0,0,0,0,13.06,0,0,0,0,0,0,0,0,0,78,36,0,0,0,0,0,0,0,0,0,0,0,0,0,0,0,0,0,0,0,0,0,0,0,0,0,0,0,0,0,0,0,0,0,0,0,0,0,0,0,0,0,0,0,0,0,0,0,0,0,0,0,0,0,0,0,13.4,-0.8362725,0,16.54369,1.177355,0.01831209,5.88767,1.912447,1,5.299017
115.008,1.242742,0.3928263,8.828862,-11.22797,3.446274,16.01384,90,90,-0.7758066,1.228384,36.6609,0.1864171,528.2083,0.293449,1.39251,0.2395769,-0.6445364,8.316684,-42.91965,-13.90585,37.43761,-40.71565,36.07843,1.02,965,28,18,0,14.90196,18.82353,0.568816,12.33801,0.05,1.184259,158.3355,346.6,19.6413,5.24443,2299,60,4052,0.97,1.140944,0.453125,1.18096,0.5625,0,0,0,0,0,0,0,0,0,0,0,0,13.06,0,0,0,0,0,0,0,0,0,78,36,0,0,0,0,0,0,0,0,0,0,0,0,0,0,0,0,0,0,0,0,0,0,0,0,0,0,0,0,0,0,0,0,0,0,0,0,0,0,0,0,0,0,0,0,0,0,0,0,0,0,0,0,0,0,0,13.4,-0.8362725,0,16.54369,1.177355,0.01831209,5.88767,1.912447,1,5.299017
116.008,4.349598,2.935638,8.832825,-4.622253,-7.786728,-4.725128,90,90,0.00777307,4.9269,36.6609,0.1903792,1127.818,2.19298,0.5280265,0.3621945,-1.160953,18.80118,-33.88857,-29.50582,36.05768,-41.6877,63.13726,1.34,1798,28,18,0,39.21569,39.60784,2.298263,30.20037,0.37,8.850106,161.2225,346.6,41.93765,5.24649,2299,60,4052,0.97,1.699216,1.570313,1.730448,1.609375,0,0,0,0,0,0,0,0,0,0,0,0,13.06,0,0,0,0,0,0,0,0,0,78,36,0,0,0,0,0,0,0,0,0,0,0,0,0,0,0,0,0,0,0,0,0,0,0,0,0,0,0,0,0,0,0,0,0,0,0,0,0,0,0,0,0,0,0,0,0,0,0,0,0,0,0,0,0,0,0,13.4,-0.7589453,0,24.63863,1.180847,0.0187013,5.995023,1.941125,1,5.299017
117.008,4.349598,2.935638,8.832825,-11.80757,-5.218033,7.710235,90,90,0.00777307,4.9269,36.6609,0.1903792,1127.818,2.19298,0.5936202,0.85141,0.1549337,16.36715,-36.25836,-29.71465,35.24973,-39.86336,63.13726,1.34,1798,28,18,0,39.21569,39.60784,2.298263,30.20037,0.37,8.850106,161.2225,346.7,41.93765,5.24649,2299,60,4052,0.97,1.699216,1.570313,1.730448,1.609375,0,0,0,0,0,0,0,0,0,0,0,0,13.06,0,0,0,0,0,0,0,0,0,78,36,0,0,0,0,0,0,0,0,0,0,0,0,0,0,0,0,0,0,0,0,0,0,0,0,0,0,0,0,0,0,0,0,0,0,0,0,0,0,0,0,0,0,0,0,0,0,0,0,0,0,0,0,0,0,0,13.4,-0.7589453,0,24.63863,1.180847,0.0187013,5.995023,1.941125,1,5.299017
118.010,4.349598,2.935638,8.832825,-6.714401,-33.47714,8.520401,90,90,0.00777307,4.9269,36.6609,0.1903792,1127.818,2.19298,-4.258672,0.3993742,0.6081188,-8.446391,-42.08599,-30.0018,18.99427,-35.10872,63.13726,1.34,1798,28,18,0,39.21569,39.60784,2.298263,30.20037,0.37,8.850106,161.2225,346.8,41.93765,5.24649,2299,60,4052,0.97,1.699216,1.570313,1.730448,1.609375,0,0,0,0,0,0,0,0,0,0,0,0,13.06,0,0,0,0,0,0,0,0,0,78,36,0,0,0,0,0,0,0,0,0,0,0,0,0,0,0,0,0,0,0,0,0,0,0,0,0,0,0,0,0,0,0,0,0,0,0,0,0,0,0,0,0,0,0,0,0,0,0,0,0,0,0,0,0,0,0,13.4,-0.7589453,0,24.63863,1.180847,0.0187013,5.995023,1.941125,1,5.299017
119.008,9.941939,5.240852,8.839634,9.04129,14.505,3.689133,90,89,1.105169,10.98248,36.6609,0.1971889,880.8796,3.91502,0.376989,0.0705056,1.29046,5.65872,-41.44083,-31.23181,19.85796,-24.33092,53.72549,1.36,1440,37,18,0,46.27451,47.05882,1.258342,24.54817,0.39,15.79967,165.903,346.8,32.7553,5.249887,2318,60,4052,0.97,1.66164,1.585938,1.699216,1.566406,0,0,0,0,0,0,0,0,0,0,0,0,13.06,0,0,0,0,0,0,0,0,0,81,35,0,0,0,0,0,0,0,0,0,0,0,0,0,0,0,0,0,0,0,0,0,0,0,0,0,0,0,0,0,0,0,0,0,0,0,0,0,0,0,0,0,0,0,0,0,0,0,0,0,0,0,0,0,0,0,13.1,-0.6152387,0,24.09378,1.188579,0.01937022,6.169065,1.995213,1,5.299017
120.008,9.941939,5.240852,8.839634,-12.09451,-3.423126,11.78284,90,89,1.105169,10.98248,36.6609,0.1971889,880.8796,3.91502,-0.5177924,0.2190109,0.1852315,2.533088,-41.86326,-30.56783,19.19354,-24.79335,53.72549,1.36,1440,37,18,0,46.27451,47.05882,1.258342,24.54817,0.39,15.79967,165.903,346.8,32.7553,5.249887,2318,60,4052,0.97,1.66164,1.585938,1.699216,1.566406,0,0,0,0,0,0,0,0,0,0,0,0,13.06,0,0,0,0,0,0,0,0,0,81,35,0,0,0,0,0,0,0,0,0,0,0,0,0,0,0,0,0,0,0,0,0,0,0,0,0,0,0,0,0,0,0,0,0,0,0,0,0,0,0,0,0,0,0,0,0,0,0,0,0,0,0,0,0,0,0,13.1,-0.6152387,0,24.09378,1.188579,0.01937022,6.169065,1.995213,1,5.299017
121.008,21.74799,5.258437,8.852464,-3.124237,8.929901,40.52184,90,89,1.525526,10.23401,36.6609,0.2100182,404.0389,3.928156,-0.1188637,-1.081067,1.57429,4.144344,-46.20882,-31.0323,24.5998,-21.56204,58.03922,1.68,1550.5,37,18,0,48.62745,48.23529,1.907985,31.70369,0.71,15.85268,172.0938,346.8,15.02409,5.254838,2318,60,4052,0.97,1.343464,0.9765625,1.346392,0.9609375,0,0,0,0,0,0,0,0,0,0,0,0,13.06,0,0,0,0,0,0,0,0,0,81,35,0,0,0,0,0,0,0,0,0,0,0,0,0,0,0,0,0,0,0,0,0,0,0,0,0,0,0,0,0,0,0,0,0,0,0,0,0,0,0,0,0,0,0,0,0,0,0,0,0,0,0,0,0,0,0,13.1,-0.45384,0,19.48023,1.220371,0.02063047,6.399266,2.024568,1,5.299017
122.008,21.74799,5.258437,8.852464,-8.65535,-13.78479,4.774643,90,89,1.525526,10.23401,36.6609,0.2100182,404.0389,3.928156,-0.4285461,0.1687311,0.7671375,0.2019293,-43.42526,-27.3293,23.59932,-25.79436,58.03922,1.68,1550.5,37,18,0,48.62745,48.23529,1.907985,31.70369,0.71,15.85268,172.0938,346.7,15.02409,5.254838,2318,60,4052,0.97,1.343464,0.9765625,1.346392,0.9609375,0,0,0,0,0,0,0,0,0,0,0,0,13.06,0,0,0,0,0,0,0,0,0,81,35,0,0,0,0,0,0,0,0,0,0,0,0,0,0,0,0,0,0,0,0,0,0,0,0,0,0,0,0,0,0,0,0,0,0,0,0,0,0,0,0,0,0,0,0,0,0,0,0,0,0,0,0,0,0,0,13.1,-0.45384,0,19.48023,1.220371,0.02063047,6.399266,2.024568,1,5.299017
123.008,27.34033,5.746899,8.859938,5.215744,6.496094,-3.523865,90,89,1.522344,9.417222,36.6609,0.2174926,351.2493,4.293047,-0.6276244,-0.3257393,-0.8047826,-0.7703847,-41.75727,-29.77937,19.93086,-26.2558,71.76471,1.67,1841.5,37,18,0,43.52941,43.92157,1.792674,37.42976,0.7,17.32525,175.1532,346.8,13.06112,5.257483,2318,60,4052,0.97,1.623576,1.480469,1.657736,1.507813,0,0,0,0,0,0,0,0,0,0,0,0,13.06,0,0,0,0,0,0,0,0,0,81,35,0,0,0,0,0,0,0,0,0,0,0,0,0,0,0,0,0,0,0,0,0,0,0,0,0,0,0,0,0,0,0,0,0,0,0,0,0,0,0,0,0,0,0,0,0,0,0,0,0,0,0,0,0,0,0,13.1,-0.31077,0,23.54185,1.241728,0.0213647,6.513031,2.054732,1,5.299017
124.008,27.34033,5.746899,8.859938,12.04895,-1.954697,-4.429688,90,89,1.522344,9.417222,36.6609,0.2174926,351.2493,4.293047,-0.2140184,0.2613545,-0.3628644,-1.162279,-42.6429,-29.7084,19.10391,-25.05095,71.76471,1.67,1841.5,37,18,0,43.52941,43.92157,1.792674,37.42976,0.7,17.32525,175.1532,346.8,13.06112,5.257483,2318,60,4052,0.97,1.623576,1.480469,1.657736,1.507813,0,0,0,0,0,0,0,0,0,0,0,0,13.06,0,0,0,0,0,0,0,0,0,81,35,0,0,0,0,0,0,0,0,0,0,0,0,0,0,0,0,0,0,0,0,0,0,0,0,0,0,0,0,0,0,0,0,0,0,0,0,0,0,0,0,0,0,0,0,0,0,0,0,0,0,0,0,0,0,0,13.1,-0.31077,0,23.54185,1.241728,0.0213647,6.513031,2.054732,1,5.299017
125.008,30.44719,5.354153,8.867146,4.045197,10.71547,-7.721146,90,89,1.100997,11.02092,36.6609,0.2247008,293.8524,3.999658,0.1485273,0.2735295,-0.4234805,-0.3111537,-40.83366,-30.36817,19.04366,-25.92487,14.11765,1.34,1466,37,18,0,42.35294,43.13726,1.137285,23.90934,0.37,16.14124,177.4554,346.8,10.92683,5.259703,2318,60,4052,0.97,1.348344,0.9570313,1.340048,0.9414063,0,0,0,0,0,0,0,0,0,0,0,0,13.06,0,0,0,0,0,0,0,0,0,81,35,0,0,0,0,0,0,0,0,0,0,0,0,0,0,0,0,0,0,0,0,0,0,0,0,0,0,0,0,0,0,0,0,0,0,0,0,0,0,0,0,0,0,0,0,0,0,0,0,0,0,0,0,0,0,0,13.1,-0.2207732,0,19.55099,1.266238,0.02207277,6.598638,2.085535,1,5.299017
126.008,30.44719,5.354153,8.867146,-3.624314,5.619919,2.682877,90,89,1.100997,11.02092,36.6609,0.2247008,293.8524,3.999658,-1.078912,-0.07122397,-0.3083885,-2.889029,-39.50132,-29.99389,14.93942,-26.86481,14.11765,1.34,1466,37,18,0,42.35294,43.13726,1.137285,23.90934,0.37,16.14124,177.4554,346.8,10.92683,5.259703,2318,60,4052,0.97,1.348344,0.9570313,1.340048,0.9414063,0,0,0,0,0,0,0,0,0,0,0,0,13.06,0,0,0,0,0,0,0,0,0,81,35,0,0,0,0,0,0,0,0,0,0,0,0,0,0,0,0,0,0,0,0,0,0,0,0,0,0,0,0,0,0,0,0,0,0,0,0,0,0,0,0,0,0,0,0,0,0,0,0,0,0,0,0,0,0,0,13.1,-0.2207732,0,19.55099,1.266238,0.02207277,6.598638,2.085535,1,5.299017
127.010,32.3113,0.8053491,8.868267,4.074951,-0.3189087,-10.14494,90,89,0.6103113,1.680648,36.6609,0.2258216,41.65004,0.6016117,-0.1374159,1.249735,1.453845,-0.9083962,-39.9674,-30.41709,17.13696,-25.13066,80.39216,1.32,1446,32,18,0,34.11765,33.33333,1.092318,23.23117,0.35,2.427897,174.6458,346.7,1.548747,5.258121,2318,60,4052,0.97,1.762656,1.628906,1.74704,1.625,0,0,0,0,0,0,0,0,0,0,0,0,13.06,0,0,0,0,0,0,0,0,0,81,35,0,0,0,0,0,0,0,0,0,0,0,0,0,0,0,0,0,0,0,0,0,0,0,0,0,0,0,0,0,0,0,0,0,0,0,0,0,0,0,0,0,0,0,0,0,0,0,0,0,0,0,0,0,0,0,13.1,-0.05082018,0,25.55851,1.293027,0.02218287,6.494161,2.120888,1,5.299017
128.008,32.3113,0.8053491,8.868267,-8.019775,1.301254,-3.168243,90,89,0.6103113,1.680648,36.6609,0.2258216,41.65004,0.6016117,-0.7544237,0.7742852,0.7637894,-3.905288,-38.22773,-30.68277,13.08609,-27.33765,80.39216,1.32,1446,32,18,0,34.11765,33.33333,1.092318,23.23117,0.35,2.427897,174.6458,346.6,1.548747,5.258121,2318,60,4052,0.97,1.762656,1.628906,1.74704,1.625,0,0,0,0,0,0,0,0,0,0,0,0,13.06,0,0,0,0,0,0,0,0,0,81,35,0,0,0,0,0,0,0,0,0,0,0,0,0,0,0,0,0,0,0,0,0,0,0,0,0,0,0,0,0,0,0,0,0,0,0,0,0,0,0,0,0,0,0,0,0,0,0,0,0,0,0,0,0,0,0,13.1,-0.05082018,0,25.55851,1.293027,0.02218287,6.494161,2.120888,1,5.299017
129.008,32.93267,1.912997,8.87126,25.2907,18.00708,-15.03601,90,89,0.2907105,5.170309,36.6609,0.2288144,97.06731,1.429047,-0.5846429,0.1261198,-1.495817,-3.946316,-38.52407,-31.12373,12.66262,-27.32726,26.66667,1.06,1116.5,32,18,0,35.29412,34.11765,0.4545012,14.64036,0.09,5.767137,172.8223,346.6,3.609425,5.257299,2318,60,4052,0.97,1.601128,1.394531,1.592832,1.40625,0,0,0,0,0,0,0,0,0,0,0,0,13.06,0,0,0,0,0,0,0,0,0,81,35,0,0,0,0,0,0,0,0,0,0,0,0,0,0,0,0,0,0,0,0,0,0,0,0,0,0,0,0,0,0,0,0,0,0,0,0,0,0,0,0,0,0,0,0,0,0,0,0,0,0,0,0,0,0,0,13.1,0.2410767,0,23.21636,1.323986,0.02247686,6.426359,2.150262,1,5.299017
130.009,33.55404,1.07086,8.872675,-25.214,-21.31931,33.97864,90,89,0.1444833,2.818511,36.6609,0.2302298,53.33026,0.7999539,1.308368,-2.185535,1.331175,3.14837,-45.7448,-33.18417,21.48767,-21.43094,67.84314,1.15,1146.5,32,18,0,32.54902,30.98039,0.9933634,16.31019,0.18,3.228337,170.4715,346.6,1.983073,5.255914,2318,60,4052,0.97,1.765096,1.609375,1.747528,1.617188,0,0,0,0,0,0,0,0,0,0,0,0,13.06,0,0,0,0,0,0,0,0,0,81,35,0,0,0,0,0,0,0,0,0,0,0,0,0,0,0,0,0,0,0,0,0,0,0,0,0,0,0,0,0,0,0,0,0,0,0,0,0,0,0,0,0,0,0,0,0,0,0,0,0,0,0,0,0,0,0,13.1,0.5213,0,25.59389,1.350547,0.02261589,6.338943,2.180048,1,5.299017
131.009,33.55404,1.07086,8.872675,31.84422,6.297516,-4.092316,90,89,0.1444833,2.818511,36.6609,0.2302298,53.33026,0.7999539,-1.019206,1.087575,0.9595336,-0.8867099,-43.45768,-32.558,17.01099,-23.52095,67.84314,1.15,1146.5,32,18,0,32.54902,30.98039,0.9933634,16.31019,0.18,3.228337,170.4715,346.5,1.983073,5.255914,2318,60,4052,0.97,1.765096,1.609375,1.747528,1.617188,0,0,0,0,0,0,0,0,0,0,0,0,13.06,0,0,0,0,0,0,0,0,0,81,35,0,0,0,0,0,0,0,0,0,0,0,0,0,0,0,0,0,0,0,0,0,0,0,0,0,0,0,0,0,0,0,0,0,0,0,0,0,0,0,0,0,0,0,0,0,0,0,0,0,0,0,0,0,0,0,13.1,0.5213,0,25.59389,1.350547,0.02261589,6.338943,2.180048,1,5.299017
132.009,33.55404,2.122725,8.87554,17.75447,-0.3480988,-0.8580017,90,89,0.07843751,5.621346,36.6609,0.2330943,105.7145,1.585717,-0.7831722,0.1639525,-0.1258137,-0.1592252,-43.96857,-31.16305,19.40913,-23.91736,52.15686,1.1,1139.5,32,18,0,25.4902,25.4902,0.7537311,15.5058,0.13,6.399406,169.2225,346.5,3.930968,5.255359,2318,60,4052,0.97,1.748992,1.59375,1.740208,1.617188,0,0,0,0,0,0,0,0,0,0,0,0,13.06,0,0,0,0,0,0,0,0,0,81,35,0,0,0,0,0,0,0,0,0,0,0,0,0,0,0,0,0,0,0,0,0,0,0,0,0,0,0,0,0,0,0,0,0,0,0,0,0,0,0,0,0,0,0,0,0,0,0,0,0,0,0,0,0,0,0,13.1,0.6006888,0,25.36038,1.377443,0.02289728,6.292497,2.209121,1,5.299017
133.009,33.55404,2.122725,8.87554,-19.23259,-39.45805,4.417648,90,89,0.07843751,5.621346,36.6609,0.2330943,105.7145,1.585717,-0.4561245,-0.112557,-0.863516,-1.619063,-41.48333,-32.38119,14.7827,-24.61809,52.15686,1.1,1139.5,32,18,0,25.4902,25.4902,0.7537311,15.5058,0.13,6.399406,169.2225,346.5,3.930968,5.255359,2318,60,4052,0.97,1.748992,1.59375,1.740208,1.617188,0,0,0,0,0,0,0,0,0,0,0,0,13.06,0,0,0,0,0,0,0,0,0,81,35,0,0,0,0,0,0,0,0,0,0,0,0,0,0,0,0,0,0,0,0,0,0,0,0,0,0,0,0,0,0,0,0,0,0,0,0,0,0,0,0,0,0,0,0,0,0,0,0,0,0,0,0,0,0,0,13.1,0.6006888,0,25.36038,1.377443,0.02289728,6.292497,2.209121,1,5.299017
134.009,34.17542,1.889914,8.877982,3.672058,43.85657,-4.350021,90,89,0.07969268,4.998244,36.6609,0.2355367,92.40895,1.411803,0.5754692,-0.9102096,0.5696021,3.425643,-44.83789,-36.54022,16.48934,-18.22725,56.07843,1.1,1141,30,18,0,27.05882,26.66667,0.8782519,15.52621,0.13,5.69755,167.7529,346.5,3.436205,5.254577,2318,60,4052,0.97,1.827072,1.683594,1.799744,1.691406,0,0,0,0,0,0,0,0,0,0,0,0,13.06,0,0,0,0,0,0,0,0,0,81,35,0,0,0,0,0,0,0,0,0,0,0,0,0,0,0,0,0,0,0,0,0,0,0,0,0,0,0,0,0,0,0,0,0,0,0,0,0,0,0,0,0,0,0,0,0,0,0,0,0,0,0,0,0,0,0,13.1,0.6923999,0,26.49254,1.404069,0.0231372,6.237854,2.244153,1,5.299017
135.009,34.17542,1.889914,8.877982,3.710083,3.625061,6.294586,90,89,0.07969268,4.998244,36.6609,0.2355367,92.40895,1.411803,0.2330404,0.3512585,0.8996814,0.5301629,-44.48623,-37.3906,15.95956,-19.58827,56.07843,1.1,1141,30,18,0,27.05882,26.66667,0.8782519,15.52621,0.13,5.69755,167.7529,346.5,3.436205,5.254577,2318,60,4052,0.97,1.827072,1.683594,1.799744,1.691406,0,0,0,0,0,0,0,0,0,0,0,0,13.06,0,0,0,0,0,0,0,0,0,81,35,0,0,0,0,0,0,0,0,0,0,0,0,0,0,0,0,0,0,0,0,0,0,0,0,0,0,0,0,0,0,0,0,0,0,0,0,0,0,0,0,0,0,0,0,0,0,0,0,0,0,0,0,0,0,0,13.1,0.6923999,0,26.49254,1.404069,0.0231372,6.237854,2.244153,1,5.299017
136.009,34.17542,1.987696,8.881107,8.674133,13.20203,-11.23288,90,89,0.07969268,5.21344,36.6609,0.2386623,97.19008,1.484848,0.2784786,-0.03600039,0.08926057,0.55853,-45.30392,-33.87614,15.55836,-18.82027,76.07843,1.1,1150.5,30,18,0,33.33333,34.11765,0.8523452,15.75877,0.13,5.992334,166.1706,346.6,3.61399,5.253736,2318,60,4052,0.97,1.443016,1.089844,1.399584,1.027344,0,0,0,0,0,0,0,0,0,0,0,0,13.06,0,0,0,0,0,0,0,0,0,81,35,0,0,0,0,0,0,0,0,0,0,0,0,0,0,0,0,0,0,0,0,0,0,0,0,0,0,0,0,0,0,0,0,0,0,0,0,0,0,0,0,0,0,0,0,0,0,0,0,0,0,0,0,0,0,0,13.1,0.6150727,0,20.92373,1.436249,0.02344424,6.179014,2.273319,1,5.299017
137.009,34.17542,1.987696,8.881107,17.1869,4.101151,-11.28993,90,89,0.07969268,5.21344,36.6609,0.2386623,97.19008,1.484848,0.6970052,-0.3477739,1.757155,2.540004,-46.01528,-33.82195,17.04101,-17.4563,76.07843,1.1,1150.5,30,18,0,33.33333,34.11765,0.8523452,15.75877,0.13,5.992334,166.1706,346.6,3.61399,5.253736,2318,60,4052,0.97,1.443016,1.089844,1.399584,1.027344,0,0,0,0,0,0,0,0,0,0,0,0,13.06,0,0,0,0,0,0,0,0,0,81,35,0,0,0,0,0,0,0,0,0,0,0,0,0,0,0,0,0,0,0,0,0,0,0,0,0,0,0,0,0,0,0,0,0,0,0,0,0,0,0,0,0,0,0,0,0,0,0,0,0,0,0,0,0,0,0,13.1,0.6150727,0,20.92373,1.436249,0.02344424,6.179014,2.273319,1,5.299017
138.009,34.79679,3.560574,8.885748,-12.09932,-13.25858,14.32913,90,89,0.08012319,8.931315,36.6609,0.2433029,170.9884,2.659819,-0.3663013,0.7299968,-0.06704088,0.7690205,-44.16219,-33.87336,13.98348,-19.84624,87.84314,1.21,1203,30,18,0,40,41.17647,1.11614,18.12567,0.24,10.73411,166.2798,346.5,6.358163,5.254227,2338,60,4052,0.97,1.182424,0.5742188,1.188768,0.6054688,0,0,0,0,0,0,0,0,0,0,0,0,13.04,0,0,0,0,0,0,0,0,0,82,34,0,0,0,0,0,0,0,0,0,0,0,0,0,0,0,0,0,0,0,0,0,0,0,0,0,0,0,0,0,0,0,0,0,0,0,0,0,0,0,0,0,0,0,0,0,0,0,0,0,0,0,0,0,0,0,13.1,0.4873908,0,17.14515,1.463214,0.02390009,6.183075,2.310785,1,5.299017
139.009,34.79679,3.560574,8.885748,12.21951,7.710449,-13.36597,90,89,0.08012319,8.931315,36.6609,0.2433029,170.9884,2.659819,0.5653309,-0.4489602,0.4437162,0.3163486,-43.4559,-33.88577,13.46019,-18.61475,87.84314,1.21,1203,30,18,0,40,41.17647,1.11614,18.12567,0.24,10.73411,166.2798,346.5,6.358163,5.254227,2338,60,4052,0.97,1.182424,0.5742188,1.188768,0.6054688,0,0,0,0,0,0,0,0,0,0,0,0,13.04,0,0,0,0,0,0,0,0,0,82,34,0,0,0,0,0,0,0,0,0,0,0,0,0,0,0,0,0,0,0,0,0,0,0,0,0,0,0,0,0,0,0,0,0,0,0,0,0,0,0,0,0,0,0,0,0,0,0,0,0,0,0,0,0,0,0,13.1,0.4873908,0,17.14515,1.463214,0.02390009,6.183075,2.310785,1,5.299017
140.009,36.03953,5.106191,8.894319,17.42262,22.3577,-15.44852,90,89,0.2031233,12.10878,36.6609,0.2518731,236.7575,3.814426,-0.3564955,-0.1318248,-1.246112,0.7385624,-44.08714,-34.54982,14.07898,-19.01334,100,1.34,1272.5,30,18,0,44.70588,44.31372,1.325777,21.23272,0.37,15.3937,167.9604,346.6,8.803772,5.256254,2338,60,4052,0.97,1.251232,0.7460938,1.24684,0.734375,0,0,0,0,0,0,0,0,0,0,0,0,13.04,0,0,0,0,0,0,0,0,0,82,34,0,0,0,0,0,0,0,0,0,0,0,0,0,0,0,0,0,0,0,0,0,0,0,0,0,0,0,0,0,0,0,0,0,0,0,0,0,0,0,0,0,0,0,0,0,0,0,0,0,0,0,0,0,0,0,13.1,0.3505921,0,18.14286,1.499598,0.02474195,6.245566,2.339536,1,5.299017
141.009,36.03953,5.106191,8.894319,-1.587784,-3.014114,-1.925476,90,89,0.2031233,12.10878,36.6609,0.2518731,236.7575,3.814426,0.1217589,0.5323185,1.449806,2.433628,-45.38169,-35.16985,15.63292,-18.20081,100,1.34,1272.5,30,18,0,44.70588,44.31372,1.325777,21.23272,0.37,15.3937,167.9604,346.7,8.803772,5.256254,2338,60,4052,0.97,1.251232,0.7460938,1.24684,0.734375,0,0,0,0,0,0,0,0,0,0,0,0,13.04,0,0,0,0,0,0,0,0,0,82,34,0,0,0,0,0,0,0,0,0,0,0,0,0,0,0,0,0,0,0,0,0,0,0,0,0,0,0,0,0,0,0,0,0,0,0,0,0,0,0,0,0,0,0,0,0,0,0,0,0,0,0,0,0,0,0,13.1,0.3505921,0,18.14286,1.499598,0.02474195,6.245566,2.339536,1,5.299017
142.009,37.90364,5.502599,8.901468,-6.662811,-4.397842,6.736847,90,89,0.3626315,12.62229,37.90364,0.259023,242.5899,4.11055,0.4805431,-0.9230005,0.3666717,2.882296,-46.96495,-34.77015,17.55659,-17.01207,76.07843,1.33,1315.5,33,18,0,34.90196,31.76471,1.186471,21.7864,0.36,16.58876,169.4001,346.8,9.020647,5.258017,2338,60,4052,0.97,1.514264,1.261719,1.519632,1.292969,0,0,0,0,0,0,0,0,0,0,0,0,13.04,0,0,0,0,0,0,0,0,0,82,34,0,0,0,0,0,0,0,0,0,0,0,0,0,0,0,0,0,0,0,0,0,0,0,0,0,0,0,0,0,0,0,0,0,0,0,0,0,0,0,0,0,0,0,0,0,0,0,0,0,0,0,0,0,0,0,13.1,0.2554484,0,21.95683,1.529061,0.0254443,6.299101,2.374846,1,5.299017
143.009,37.90364,5.502599,8.901468,3.722275,2.20137,4.663742,90,89,0.3626315,12.62229,37.90364,0.259023,242.5899,4.11055,0.3960952,0.07152468,-0.3886127,1.661067,-46.68791,-34.76237,15.86565,-17.55881,76.07843,1.33,1315.5,33,18,0,34.90196,31.76471,1.186471,21.7864,0.36,16.58876,169.4001,347,9.020647,5.258017,2338,60,4052,0.97,1.514264,1.261719,1.519632,1.292969,0,0,0,0,0,0,0,0,0,0,0,0,13.04,0,0,0,0,0,0,0,0,0,82,34,0,0,0,0,0,0,0,0,0,0,0,0,0,0,0,0,0,0,0,0,0,0,0,0,0,0,0,0,0,0,0,0,0,0,0,0,0,0,0,0,0,0,0,0,0,0,0,0,0,0,0,0,0,0,0,13.1,0.2554484,0,21.95683,1.529061,0.0254443,6.299101,2.374846,1,5.299017
144.009,38.52501,3.055102,8.906256,-9.658203,-10.5601,7.946396,90,89,0.3059046,7.213663,38.52501,0.2638101,132.5161,2.282222,0.1750104,-0.05746191,0.8244328,1.610776,-47.38854,-35.10818,15.93552,-17.97,6.666667,1.07,1278,33,18,0,14.90196,14.90196,0.845857,16.86091,0.1,9.210257,168.5522,347.1,4.927579,5.25783,2338,60,4052,0.97,12.71289,3.574219,6.32692,3.328125,0,0,0,0,0,0,0,0,0,0,0,0,13.04,0,0,0,0,0,0,0,0,0,82,34,0,0,0,0,0,0,0,0,0,0,0,0,0,0,0,0,0,0,0,0,0,0,0,0,0,0,0,0,0,0,0,0,0,0,0,0,0,0,0,0,0,0,0,0,0,0,0,0,0,0,0,0,0,0,0,13.1,0.1915737,0,184.3369,1.565154,0.02591455,6.267574,2.404285,1,5.299017
145.009,38.52501,3.055102,8.906256,17.8063,14.08344,-12.65469,90,89,0.3059046,7.213663,38.52501,0.2638101,132.5161,2.282222,-0.3085494,0.001063879,-1.350046,-1.17448,-45.25554,-34.28845,12.66617,-19.09639,6.666667,1.07,1278,33,18,0,14.90196,14.90196,0.845857,16.86091,0.1,9.210257,168.5522,347.1,4.927579,5.25783,2338,60,4052,0.97,12.71289,3.574219,6.32692,3.328125,0,0,0,0,0,0,0,0,0,0,0,0,13.04,0,0,0,0,0,0,0,0,0,82,34,0,0,0,0,0,0,0,0,0,0,0,0,0,0,0,0,0,0,0,0,0,0,0,0,0,0,0,0,0,0,0,0,0,0,0,0,0,0,0,0,0,0,0,0,0,0,0,0,0,0,0,0,0,0,0,13.1,0.1915737,0,184.3369,1.565154,0.02591455,6.267574,2.404285,1,5.299017
146.009,37.28227,0.1918104,8.906508,-2.579453,1.017563,-1.778656,90,89,-0.09101139,0.4570125,38.52501,0.2640634,8.597173,0.1432862,-0.2921964,-0.02235957,0.9974318,-0.4365153,-46.01926,-34.3083,13.99134,-18.53064,45.09804,1.03,1266.5,33,18,0,30.19608,32.54902,0.6238158,16.08454,0.06,0.5782536,165.5997,347.2,0.3196838,5.255524,2338,60,4052,0.97,1.536224,1.3125,1.523048,1.300781,0,0,0,0,0,0,0,0,0,0,0,0,13.04,0,0,0,0,0,0,0,0,0,82,34,0,0,0,0,0,0,0,0,0,0,0,0,0,0,0,0,0,0,0,0,0,0,0,0,0,0,0,0,0,0,0,0,0,0,0,0,0,0,0,0,0,0,0,0,0,0,0,0,0,0,0,0,0,0,0,13.1,0.1151838,0,22.27525,1.594588,0.02593943,6.157786,2.434056,1,5.299017
147.009,37.28227,1.821574,8.908966,0.9575043,-5.040939,6.211243,90,89,-0.1572846,4.256115,38.52501,0.2665206,81.6451,1.360752,-0.4150265,0.2120267,-0.4455142,-2.581825,-42.94844,-33.93639,11.71658,-20.7392,88.23529,1.19,1291.5,33,18,0,40.78431,43.52941,0.8837056,18.94993,0.22,5.491523,164.0382,347.3,3.035954,5.254459,2338,60,4052,0.97,1.1346,0.453125,1.137528,0.4414063,0,0,0,0,0,0,0,0,0,0,0,0,13.04,0,0,0,0,0,0,0,0,0,82,34,0,0,0,0,0,0,0,0,0,0,0,0,0,0,0,0,0,0,0,0,0,0,0,0,0,0,0,0,0,0,0,0,0,0,0,0,0,0,0,0,0,0,0,0,0,0,0,0,0,0,0,0,0,0,0,13.1,0.1019747,0,16.4517,1.624747,0.02618081,6.099723,2.463105,1,5.299017
148.009,37.28227,1.821574,8.908966,-3.15155,5.379974,2.551147,90,89,-0.1572846,4.256115,38.52501,0.2665206,81.6451,1.360752,0.1621058,-0.05315506,-0.1478428,-2.587876,-44.17024,-32.98391,12.8446,-19.26819,88.23529,1.19,1291.5,33,18,0,40.78431,43.52941,0.8837056,18.94993,0.22,5.491523,164.0382,347.4,3.035954,5.254459,2338,60,4052,0.97,1.1346,0.453125,1.137528,0.4414063,0,0,0,0,0,0,0,0,0,0,0,0,13.04,0,0,0,0,0,0,0,0,0,82,34,0,0,0,0,0,0,0,0,0,0,0,0,0,0,0,0,0,0,0,0,0,0,0,0,0,0,0,0,0,0,0,0,0,0,0,0,0,0,0,0,0,0,0,0,0,0,0,0,0,0,0,0,0,0,0,13.1,0.1019747,0,16.4517,1.624747,0.02618081,6.099723,2.463105,1,5.299017
149.009,38.52501,5.702318,8.916378,-8.577591,-6.615067,10.59137,90,89,0.1596454,12.82212,38.52501,0.2739325,247.34,4.259744,-0.007875198,0.599481,0.2108033,-1.236889,-44.22834,-33.69978,13.23099,-18.47742,91.76471,1.36,1342,34,18,0,41.17647,41.56863,1.386559,22.5039,0.39,17.19086,165.5469,347.6,9.19728,5.256332,2338,60,4052,0.97,1.314672,0.890625,1.313696,0.8867188,0,0,0,0,0,0,0,0,0,0,0,0,13.04,0,0,0,0,0,0,0,0,0,82,34,0,0,0,0,0,0,0,0,0,0,0,0,0,0,0,0,0,0,0,0,0,0,0,0,0,0,0,0,0,0,0,0,0,0,0,0,0,0,0,0,0,0,0,0,0,0,0,0,0,0,0,0,0,0,0,13.1,0.1182163,0,19.06274,1.654713,0.0269089,6.155821,2.498254,1,5.299017
150.009,38.52501,5.702318,8.916378,5.626266,0.9410095,-3.011734,90,89,0.1596454,12.82212,38.52501,0.2739325,247.34,4.259744,-1.194458,0.710606,0.694568,-0.9170138,-43.50558,-33.75045,12.97372,-18.94551,91.76471,1.36,1342,34,18,0,41.17647,41.56863,1.386559,22.5039,0.39,17.19086,165.5469,347.7,9.19728,5.256332,2338,60,4052,0.97,1.314672,0.890625,1.313696,0.8867188,0,0,0,0,0,0,0,0,0,0,0,0,13.04,0,0,0,0,0,0,0,0,0,82,34,0,0,0,0,0,0,0,0,0,0,0,0,0,0,0,0,0,0,0,0,0,0,0,0,0,0,0,0,0,0,0,0,0,0,0,0,0,0,0,0,0,0,0,0,0,0,0,0,0,0,0,0,0,0,0,13.1,0.1182163,0,19.06274,1.654713,0.0269089,6.155821,2.498254,1,5.299017
151.014,39.76776,4.751312,8.923845,-6.141266,-0.4209137,3.962402,90,89,0.2923773,10.48449,39.76776,0.2813995,199.6495,3.549324,0.4864061,-0.6775426,-0.245564,0.5854025,-44.04302,-34.61973,15.11577,-19.18494,77.64706,1.31,1367.5,34,18,0,32.94118,33.33333,1.072569,22.01652,0.34,14.32384,166.3199,347.8,7.423919,5.257633,2338,60,4052,0.97,1.367376,0.9882813,1.36884,1,0,0,0,0,0,0,0,0,0,0,0,0,13.04,0,0,0,0,0,0,0,0,0,82,34,0,0,0,0,0,0,0,0,0,0,0,0,0,0,0,0,0,0,0,0,0,0,0,0,0,0,0,0,0,0,0,0,0,0,0,0,0,0,0,0,0,0,0,0,0,0,0,0,0,0,0,0,0,0,0,13.1,0.1447627,0,19.82695,1.691918,0.02764239,6.184565,2.527341,1,5.299017
152.010,39.76776,4.751312,8.923845,4.98291,-1.319885,6.076477,90,89,0.2923773,10.48449,39.76776,0.2813995,199.6495,3.549324,-0.3712436,0.718889,1.029036,0.9287812,-44.80871,-35.21603,15.88518,-19.0405,77.64706,1.31,1367.5,34,18,0,32.94118,33.33333,1.072569,22.01652,0.34,14.32384,166.3199,348,7.423919,5.257633,2338,60,4052,0.97,1.367376,0.9882813,1.36884,1,0,0,0,0,0,0,0,0,0,0,0,0,13.04,0,0,0,0,0,0,0,0,0,82,34,0,0,0,0,0,0,0,0,0,0,0,0,0,0,0,0,0,0,0,0,0,0,0,0,0,0,0,0,0,0,0,0,0,0,0,0,0,0,0,0,0,0,0,0,0,0,0,0,0,0,0,0,0,0,0,13.1,0.1447627,0,19.82695,1.691918,0.02764239,6.184565,2.527341,1,5.299017
153.010,40.38913,3.065822,8.927814,0.2640228,-10.43326,13.21132,90,89,0.2124178,8.058721,40.38913,0.2853691,126.8435,2.29023,0.5723921,0.428954,0.9011118,2.60102,-46.24426,-36.18624,18.896,-18.13126,78.43137,1.17,1148,34,18,0,37.2549,38.03922,0.8026654,16.50737,0.2,9.242576,165.5861,348.1,4.716646,5.25735,2338,60,4052,0.97,1.309304,0.8710938,1.296128,0.8554688,0,0,0,0,0,0,0,0,0,0,0,0,13.04,0,0,0,0,0,0,0,0,0,82,34,0,0,0,0,0,0,0,0,0,0,0,0,0,0,0,0,0,0,0,0,0,0,0,0,0,0,0,0,0,0,0,0,0,0,0,0,0,0,0,0,0,0,0,0,0,0,0,0,0,0,0,0,0,0,0,13.1,0.1447613,0,18.98491,1.723388,0.02803232,6.157279,2.557109,1,5.299017
154.010,40.38913,3.065822,8.927814,-17.88438,-11.53847,1.325974,90,89,0.2124178,8.058721,40.38913,0.2853691,126.8435,2.29023,-0.02530897,0.3669305,-1.141815,-0.1462873,-44.68765,-35.42195,16.42505,-20.25809,78.43137,1.17,1148,34,18,0,37.2549,38.03922,0.8026654,16.50737,0.2,9.242576,165.5861,348.3,4.716646,5.25735,2338,60,4052,0.97,1.309304,0.8710938,1.296128,0.8554688,0,0,0,0,0,0,0,0,0,0,0,0,13.04,0,0,0,0,0,0,0,0,0,82,34,0,0,0,0,0,0,0,0,0,0,0,0,0,0,0,0,0,0,0,0,0,0,0,0,0,0,0,0,0,0,0,0,0,0,0,0,0,0,0,0,0,0,0,0,0,0,0,0,0,0,0,0,0,0,0,13.1,0.1447613,0,18.98491,1.723388,0.02803232,6.157279,2.557109,1,5.299017
155.010,40.38913,3.078425,8.931964,3.843582,15.47394,-0.9271698,90,89,0.07968581,8.275672,40.38913,0.2895186,127.3649,2.299644,0.690747,-0.6586114,-0.921937,1.169072,-46.85934,-35.77415,18.95271,-18.70329,76.07843,1.18,1122.5,34,18,0,34.11765,33.33333,0.9504665,16.27865,0.21,9.28057,164.8936,348.5,4.736035,5.257096,2338,60,4052,0.97,1.56648,1.363281,1.524512,1.3125,0,0,0,0,0,0,0,0,0,0,0,0,13.04,0,0,0,0,0,0,0,0,0,82,34,0,0,0,0,0,0,0,0,0,0,0,0,0,0,0,0,0,0,0,0,0,0,0,0,0,0,0,0,0,0,0,0,0,0,0,0,0,0,0,0,0,0,0,0,0,0,0,0,0,0,0,0,0,0,0,13.1,0.1447613,0,22.71396,1.75579,0.02843994,6.13153,2.586194,1,5.299017
156.010,40.38913,3.078425,8.931964,-12.58751,-6.796219,13.64665,90,89,0.07968581,8.275672,40.38913,0.2895186,127.3649,2.299644,-0.4964615,0.6478019,0.06303293,1.660586,-48.47923,-34.75574,20.31721,-19.61121,76.07843,1.18,1122.5,34,18,0,34.11765,33.33333,0.9504665,16.27865,0.21,9.28057,164.8936,348.7,4.736035,5.257096,2338,60,4052,0.97,1.56648,1.363281,1.524512,1.3125,0,0,0,0,0,0,0,0,0,0,0,0,13.04,0,0,0,0,0,0,0,0,0,82,34,0,0,0,0,0,0,0,0,0,0,0,0,0,0,0,0,0,0,0,0,0,0,0,0,0,0,0,0,0,0,0,0,0,0,0,0,0,0,0,0,0,0,0,0,0,0,0,0,0,0,0,0,0,0,0,13.1,0.1447613,0,22.71396,1.75579,0.02843994,6.13153,2.586194,1,5.299017
157.010,40.38913,3.078425,8.931964,20.35094,0.7694092,5.582001,90,89,0.07968581,8.275672,40.38913,0.2895186,127.3649,2.299644,0.5892918,0.3657409,-1.644423,2.90371,-45.50436,-33.60535,22.8404,-23.2258,76.07843,1.18,1122.5,34,18,0,34.11765,33.33333,0.9504665,16.27865,0.21,9.28057,164.8936,348.8,4.736035,5.257096,2338,60,4052,0.97,1.56648,1.363281,1.524512,1.3125,0,0,0,0,0,0,0,0,0,0,0,0,13.04,0,0,0,0,0,0,0,0,0,82,34,0,0,0,0,0,0,0,0,0,0,0,0,0,0,0,0,0,0,0,0,0,0,0,0,0,0,0,0,0,0,0,0,0,0,0,0,0,0,0,0,0,0,0,0,0,0,0,0,0,0,0,0,0,0,0,13.1,0.1447613,0,22.71396,1.75579,0.02843994,6.13153,2.586194,1,5.299017
158.010,40.38913,2.756717,8.935532,16.26019,13.35437,-7.299347,90,90,-8.604228E-16,7.470729,40.38913,0.2930862,114.0548,2.059322,0.1913008,-0.1872007,-1.03256,1.07242,-45.9605,-32.60856,23.03167,-23.45746,69.01961,1.09,1113.5,30,18,0,34.90196,33.33333,0.8973962,14.91649,0.12,8.310712,163.988,348.8,4.2411,5.256579,2357,60,4053,0.97,1.551352,1.355469,1.535248,1.332031,0,0,0,0,0,0,0,0,0,0,0,0,13.06,0,0,0,0,0,0,0,0,0,84,34,0,0,0,0,0,0,0,0,0,0,0,0,0,0,0,0,0,0,0,0,0,0,0,0,0,0,0,0,0,0,0,0,0,0,0,0,0,0,0,0,0,0,0,0,0,0,0,0,0,0,0,0,0,0,0,13.1,0.1287366,0,22.4946,1.787242,0.0287904,6.097856,2.638683,1,5.299017
159.010,40.38913,2.756717,8.935532,-28.24236,-16.76765,-1.478256,90,90,-8.604228E-16,7.470729,40.38913,0.2930862,114.0548,2.059322,-0.359742,0.1848278,0.8735271,3.207999,-47.68446,-35.49946,20.78358,-18.76964,69.01961,1.09,1113.5,30,18,0,34.90196,33.33333,0.8973962,14.91649,0.12,8.310712,163.988,348.9,4.2411,5.256579,2357,60,4053,0.97,1.551352,1.355469,1.535248,1.332031,0,0,0,0,0,0,0,0,0,0,0,0,13.06,0,0,0,0,0,0,0,0,0,84,34,0,0,0,0,0,0,0,0,0,0,0,0,0,0,0,0,0,0,0,0,0,0,0,0,0,0,0,0,0,0,0,0,0,0,0,0,0,0,0,0,0,0,0,0,0,0,0,0,0,0,0,0,0,0,0,13.1,0.1287366,0,22.4946,1.787242,0.0287904,6.097856,2.638683,1,5.299017
160.010,41.0105,2.147414,8.940584,-9.600647,-4.57782,9.203964,90,90,0.04405907,5.711791,41.0105,0.2981393,87.49967,1.604161,0.4606974,-0.2165296,1.356341,3.653225,-48.68044,-33.15789,25.76301,-19.9398,64.31373,1.09,1134.5,30,18,0,35.68628,36.86274,0.7666551,15.39834,0.12,6.473838,161.5901,349.1,3.253655,5.254747,2357,60,4053,0.97,1.301984,0.8710938,1.304912,0.875,0,0,0,0,0,0,0,0,0,0,0,0,13.06,0,0,0,0,0,0,0,0,0,84,34,0,0,0,0,0,0,0,0,0,0,0,0,0,0,0,0,0,0,0,0,0,0,0,0,0,0,0,0,0,0,0,0,0,0,0,0,0,0,0,0,0,0,0,0,0,0,0,0,0,0,0,0,0,0,0,13.1,0.1129484,0,18.87877,1.845034,0.02928676,6.008689,2.667738,1,5.299017
161.010,41.0105,2.801023,8.944237,0.5518494,-8,8.250885,90,90,0.04405907,7.337112,41.0105,0.3017915,114.132,2.092419,0.2942034,-0.6435341,0.6208154,1.345248,-48.06067,-32.48486,25.86734,-20.72755,84.31373,1.18,1152,30,18,0,35.68628,35.68628,1.053308,16.9269,0.21,8.444281,160.7842,349.1,4.24397,5.25424,2357,60,4053,0.97,1.294176,0.828125,1.298568,0.8320313,0,0,0,0,0,0,0,0,0,0,0,0,13.06,0,0,0,0,0,0,0,0,0,84,34,0,0,0,0,0,0,0,0,0,0,0,0,0,0,0,0,0,0,0,0,0,0,0,0,0,0,0,0,0,0,0,0,0,0,0,0,0,0,0,0,0,0,0,0,0,0,0,0,0,0,0,0,0,0,0,13.1,0.06502216,0,18.76555,1.876997,0.02964553,5.978723,2.697861,1,5.299017
162.010,41.0105,2.801023,8.944237,6.521423,2.436203,2.492523,90,90,0.04405907,7.337112,41.0105,0.3017915,114.132,2.092419,0.006261988,-0.3554743,-0.2557486,-0.2011441,-47.09478,-31.34357,25.12875,-22.48376,84.31373,1.18,1152,30,18,0,35.68628,35.68628,1.053308,16.9269,0.21,8.444281,160.7842,349.2,4.24397,5.25424,2357,60,4053,0.97,1.294176,0.828125,1.298568,0.8320313,0,0,0,0,0,0,0,0,0,0,0,0,13.06,0,0,0,0,0,0,0,0,0,84,34,0,0,0,0,0,0,0,0,0,0,0,0,0,0,0,0,0,0,0,0,0,0,0,0,0,0,0,0,0,0,0,0,0,0,0,0,0,0,0,0,0,0,0,0,0,0,0,0,0,0,0,0,0,0,0,13.1,0.06502216,0,18.76555,1.876997,0.02964553,5.978723,2.697861,1,5.299017
163.011,41.63187,3.385808,8.948784,-4.571106,-0.7763977,6.480819,90,90,0.07723057,8.773723,41.63187,0.306339,135.9009,2.529266,0.02369936,0.1965445,-0.3195886,-0.6675016,-45.46498,-31.27219,24.3005,-23.68648,65.09804,1.18,1164.5,30,18,0,33.72549,32.94118,0.9564419,17.11057,0.21,10.20724,160.3477,349.3,5.053442,5.254133,2357,60,4053,0.97,1.646512,1.472656,1.61772,1.449219,0,0,0,0,0,0,0,0,0,0,0,0,13.06,0,0,0,0,0,0,0,0,0,84,34,0,0,0,0,0,0,0,0,0,0,0,0,0,0,0,0,0,0,0,0,0,0,0,0,0,0,0,0,0,0,0,0,0,0,0,0,0,0,0,0,0,0,0,0,0,0,0,0,0,0,0,0,0,0,0,13.1,0.06721363,0,23.87442,1.910467,0.03009224,5.962493,2.726994,1,5.299017
164.013,41.63187,3.385808,8.948784,-13.95546,-11.91913,17.40213,90,90,0.07723057,8.773723,41.63187,0.306339,135.9009,2.529266,0.4751138,0.1370286,0.2189109,-1.831808,-45.98764,-29.94035,25.45718,-24.31003,65.09804,1.18,1164.5,30,18,0,33.72549,32.94118,0.9564419,17.11057,0.21,10.20724,160.3477,349.3,5.053442,5.254133,2357,60,4053,0.97,1.646512,1.472656,1.61772,1.449219,0,0,0,0,0,0,0,0,0,0,0,0,13.06,0,0,0,0,0,0,0,0,0,84,34,0,0,0,0,0,0,0,0,0,0,0,0,0,0,0,0,0,0,0,0,0,0,0,0,0,0,0,0,0,0,0,0,0,0,0,0,0,0,0,0,0,0,0,0,0,0,0,0,0,0,0,0,0,0,0,13.1,0.06721363,0,23.87442,1.910467,0.03009224,5.962493,2.726994,1,5.299017
165.010,41.63187,1.888216,8.951283,3.61499,-9.700195,12.09926,90,90,0.07723057,4.965465,41.63187,0.3088368,75.78991,1.410534,-0.2286136,0.6556379,0.9539089,-1.500883,-45.21488,-29.59843,25.52385,-25.30658,50.58823,1.12,1147.5,31,18,0,25.4902,25.4902,0.6834255,16.00345,0.15,5.692429,158.9133,349.3,2.81823,5.252865,2357,60,4053,0.97,1.778272,1.636719,1.771928,1.644531,0,0,0,0,0,0,0,0,0,0,0,0,13.06,0,0,0,0,0,0,0,0,0,84,34,0,0,0,0,0,0,0,0,0,0,0,0,0,0,0,0,0,0,0,0,0,0,0,0,0,0,0,0,0,0,0,0,0,0,0,0,0,0,0,0,0,0,0,0,0,0,0,0,0,0,0,0,0,0,0,13.1,0.09867056,0,25.78494,1.943429,0.0303376,5.909155,2.762405,1,5.299017
166.010,41.63187,1.888216,8.951283,12.82011,10.42047,-4.390015,90,90,0.07723057,4.965465,41.63187,0.3088368,75.78991,1.410534,0.04311503,-0.4064948,-0.04845513,-1.209322,-45.95454,-29.55608,25.75161,-25.1377,50.58823,1.12,1147.5,31,18,0,25.4902,25.4902,0.6834255,16.00345,0.15,5.692429,158.9133,349.3,2.81823,5.252865,2357,60,4053,0.97,1.778272,1.636719,1.771928,1.644531,0,0,0,0,0,0,0,0,0,0,0,0,13.06,0,0,0,0,0,0,0,0,0,84,34,0,0,0,0,0,0,0,0,0,0,0,0,0,0,0,0,0,0,0,0,0,0,0,0,0,0,0,0,0,0,0,0,0,0,0,0,0,0,0,0,0,0,0,0,0,0,0,0,0,0,0,0,0,0,0,13.1,0.09867056,0,25.78494,1.943429,0.0303376,5.909155,2.762405,1,5.299017
167.010,41.63187,1.888216,8.951283,7.981644,4.688538,-2.992706,90,90,0.07723057,4.965465,41.63187,0.3088368,75.78991,1.410534,-0.5765518,0.4551028,0.1668005,-2.279589,-46.68893,-28.93986,24.44597,-24.9568,50.58823,1.12,1147.5,31,18,0,25.4902,25.4902,0.6834255,16.00345,0.15,5.692429,158.9133,349.3,2.81823,5.252865,2357,60,4053,0.97,1.778272,1.636719,1.771928,1.644531,0,0,0,0,0,0,0,0,0,0,0,0,13.06,0,0,0,0,0,0,0,0,0,84,34,0,0,0,0,0,0,0,0,0,0,0,0,0,0,0,0,0,0,0,0,0,0,0,0,0,0,0,0,0,0,0,0,0,0,0,0,0,0,0,0,0,0,0,0,0,0,0,0,0,0,0,0,0,0,0,13.1,0.09867056,0,25.78494,1.943429,0.0303376,5.909155,2.762405,1,5.299017
168.010,41.63187,1.590244,8.954488,2.848099,5.895813,3.002289,90,90,-8.604228E-16,4.220504,41.63187,0.3120424,63.82982,1.187944,-0.1835015,-0.2171796,0.104227,-2.096527,-46.34254,-28.65399,23.5269,-25.45459,50.98039,1.08,1137,31,18,0,30.98039,30.58824,0.7541172,15.24042,0.11,4.794131,156.4988,349.4,2.373497,5.250565,2357,60,4053,0.97,1.527928,1.269531,1.492792,1.21875,0,0,0,0,0,0,0,0,0,0,0,0,13.06,0,0,0,0,0,0,0,0,0,84,34,0,0,0,0,0,0,0,0,0,0,0,0,0,0,0,0,0,0,0,0,0,0,0,0,0,0,0,0,0,0,0,0,0,0,0,0,0,0,0,0,0,0,0,0,0,0,0,0,0,0,0,0,0,0,0,13.1,0.09867056,0,22.15496,1.993896,0.03065249,5.819372,2.80125,1,5.299017
169.010,41.63187,2.159144,8.957294,-0.7347412,2.925049,0.7636261,90,90,-8.604228E-16,5.592639,41.63187,0.3148483,86.66456,1.612924,-0.2513949,-0.01984164,-0.325843,-2.494534,-45.96832,-28.01155,23.6004,-26.50027,80.39216,1.17,1165,31,18,0,34.11765,33.72549,1.025405,16.91705,0.2,6.509202,155.4016,349.5,3.222601,5.24955,2357,60,4053,0.97,1.4884,1.21875,1.47864,1.214844,0,0,0,0,0,0,0,0,0,0,0,0,13.06,0,0,0,0,0,0,0,0,0,84,34,0,0,0,0,0,0,0,0,0,0,0,0,0,0,0,0,0,0,0,0,0,0,0,0,0,0,0,0,0,0,0,0,0,0,0,0,0,0,0,0,0,0,0,0,0,0,0,0,0,0,0,0,0,0,0,13.1,0.06674148,0,21.5818,2.02603,0.03092812,5.778572,2.831044,1,5.299017
170.010,41.63187,2.159144,8.957294,7.171158,7.894883,-2.830887,90,90,-8.604228E-16,5.592639,41.63187,0.3148483,86.66456,1.612924,-0.1249169,0.4597413,0.1969543,-2.851247,-44.95857,-27.09963,23.60716,-26.58672,80.39216,1.17,1165,31,18,0,34.11765,33.72549,1.025405,16.91705,0.2,6.509202,155.4016,349.5,3.222601,5.24955,2357,60,4053,0.97,1.4884,1.21875,1.47864,1.214844,0,0,0,0,0,0,0,0,0,0,0,0,13.06,0,0,0,0,0,0,0,0,0,84,34,0,0,0,0,0,0,0,0,0,0,0,0,0,0,0,0,0,0,0,0,0,0,0,0,0,0,0,0,0,0,0,0,0,0,0,0,0,0,0,0,0,0,0,0,0,0,0,0,0,0,0,0,0,0,0,13.1,0.06674148,0,21.5818,2.02603,0.03092812,5.778572,2.831044,1,5.299017
171.010,41.63187,3.305978,8.96174,10.04066,13.01143,-8.654724,90,90,-8.604228E-16,8.508406,41.63187,0.319295,132.6966,2.469631,-0.1794857,-0.5783883,-0.7994708,-4.106449,-43.22383,-28.47158,21.45332,-28.52655,72.54902,1.19,1172.5,31,18,0,33.33333,32.15686,0.9717122,17.317,0.22,9.966578,155.0307,349.4,4.934292,5.249382,2357,60,4053,0.97,1.580144,1.367188,1.581608,1.382813,0,0,0,0,0,0,0,0,0,0,0,0,13.06,0,0,0,0,0,0,0,0,0,84,34,0,0,0,0,0,0,0,0,0,0,0,0,0,0,0,0,0,0,0,0,0,0,0,0,0,0,0,0,0,0,0,0,0,0,0,0,0,0,0,0,0,0,0,0,0,0,0,0,0,0,0,0,0,0,0,13.1,0.04019509,0,22.91209,2.05956,0.03136494,5.764781,2.860159,1,5.299017
172.011,41.63187,3.305978,8.96174,-0.8545226,5.522644,-6.044418,90,90,-8.604228E-16,8.508406,41.63187,0.319295,132.6966,2.469631,-0.3899443,-0.1717311,-0.2986085,-4.266221,-43.4911,-26.78519,21.67658,-27.63144,72.54902,1.19,1172.5,31,18,0,33.33333,32.15686,0.9717122,17.317,0.22,9.966578,155.0307,349.4,4.934292,5.249382,2357,60,4053,0.97,1.580144,1.367188,1.581608,1.382813,0,0,0,0,0,0,0,0,0,0,0,0,13.06,0,0,0,0,0,0,0,0,0,84,34,0,0,0,0,0,0,0,0,0,0,0,0,0,0,0,0,0,0,0,0,0,0,0,0,0,0,0,0,0,0,0,0,0,0,0,0,0,0,0,0,0,0,0,0,0,0,0,0,0,0,0,0,0,0,0,13.1,0.04019509,0,22.91209,2.05956,0.03136494,5.764781,2.860159,1,5.299017
173.011,42.25324,2.492928,8.964981,-12.30566,-7.481781,0.30336,90,90,0.07987958,6.487837,42.25324,0.3225355,98.59057,1.862266,-0.5436144,0.292578,1.06708,-4.900155,-42.97295,-26.10089,20.5714,-28.13159,55.29412,1.14,1159.5,31,18,0,28.23529,27.84314,0.8067565,16.40546,0.17,7.515462,154.146,349.4,3.666067,5.248565,2357,60,4053,0.97,1.814384,1.664063,1.786568,1.660156,0,0,0,0,0,0,0,0,0,0,0,0,13.06,0,0,0,0,0,0,0,0,0,84,34,0,0,0,0,0,0,0,0,0,0,0,0,0,0,0,0,0,0,0,0,0,0,0,0,0,0,0,0,0,0,0,0,0,0,0,0,0,0,0,0,0,0,0,0,0,0,0,0,0,0,0,0,0,0,0,13.1,0.04023385,0,26.30857,2.092402,0.03168325,5.731883,2.895246,1,5.299017
174.011,42.25324,2.492928,8.964981,-4.686996,-11.88487,9.975113,90,90,0.07987958,6.487837,42.25324,0.3225355,98.59057,1.862266,0.569951,-0.4267427,0.2364351,-3.560748,-43.99335,-26.19536,22.37164,-27.44809,55.29412,1.14,1159.5,31,18,0,28.23529,27.84314,0.8067565,16.40546,0.17,7.515462,154.146,349.4,3.666067,5.248565,2357,60,4053,0.97,1.814384,1.664063,1.786568,1.660156,0,0,0,0,0,0,0,0,0,0,0,0,13.06,0,0,0,0,0,0,0,0,0,84,34,0,0,0,0,0,0,0,0,0,0,0,0,0,0,0,0,0,0,0,0,0,0,0,0,0,0,0,0,0,0,0,0,0,0,0,0,0,0,0,0,0,0,0,0,0,0,0,0,0,0,0,0,0,0,0,13.1,0.04023385,0,26.30857,2.092402,0.03168325,5.731883,2.895246,1,5.299017
175.011,42.25324,1.576333,8.96746,-11.12257,-9.557495,6.48262,90,90,0.07987958,4.141693,42.25324,0.3250149,62.34098,1.177552,0.2630421,-0.1017667,0.8605784,-3.229641,-44.59536,-26.88627,23.1288,-27.045,45.09804,1.06,1148.5,31,18,0,21.56863,20.78431,0.6768235,15.10948,0.09,4.752192,152.4492,349.3,2.318135,5.246749,2357,60,4053,0.97,2.564928,2.289063,2.399496,2.238281,0,0,0,0,0,0,0,0,0,0,0,0,13.06,0,0,0,0,0,0,0,0,0,84,34,0,0,0,0,0,0,0,0,0,0,0,0,0,0,0,0,0,0,0,0,0,0,0,0,0,0,0,0,0,0,0,0,0,0,0,0,0,0,0,0,0,0,0,0,0,0,0,0,0,0,0,0,0,0,0,13.1,0.04023385,0,37.19146,2.131955,0.0319268,5.668789,2.924378,1,5.299017
176.015,42.25324,1.576333,8.96746,10.20471,20.06531,-16.93031,90,90,0.07987958,4.141693,42.25324,0.3250149,62.34098,1.177552,-0.7154213,-0.3749436,-1.22059,-3.209868,-44.44588,-26.6945,22.33642,-27.66005,45.09804,1.06,1148.5,31,18,0,21.56863,20.78431,0.6768235,15.10948,0.09,4.752192,152.4492,349.3,2.318135,5.246749,2357,60,4053,0.97,2.564928,2.289063,2.399496,2.238281,0,0,0,0,0,0,0,0,0,0,0,0,13.06,0,0,0,0,0,0,0,0,0,84,34,0,0,0,0,0,0,0,0,0,0,0,0,0,0,0,0,0,0,0,0,0,0,0,0,0,0,0,0,0,0,0,0,0,0,0,0,0,0,0,0,0,0,0,0,0,0,0,0,0,0,0,0,0,0,0,13.1,0.04023385,0,37.19146,2.131955,0.0319268,5.668789,2.924378,1,5.299017
177.013,41.63187,1.180063,8.968987,-1.535309,-17.6842,11.37154,90,90,-0.07965012,3.168107,42.25324,0.3265411,47.36581,0.8815304,0.8577945,-0.3261593,-0.161175,-3.084641,-44.35458,-26.95286,22.57534,-27.32881,31.76471,1.04,1124,31,18,0,25.09804,24.70588,0.6271822,14.50816,0.07,3.557552,150.8686,349.3,1.761287,5.244964,2377,60,4053,0.97,2.013488,1.882813,1.992992,1.890625,0,0,0,0,0,0,0,0,0,0,0,0,13.04,0,0,0,0,0,0,0,0,0,80,34,0,0,0,0,0,0,0,0,0,0,0,0,0,0,0,0,0,0,0,0,0,0,0,0,0,0,0,0,0,0,0,0,0,0,0,0,0,0,0,0,0,0,0,0,0,0,0,0,0,0,0,0,0,0,0,13.1,0.02430382,0,29.19558,2.164407,0.03207673,5.610013,2.961795,1,5.299017
178.014,41.63187,1.180063,8.968987,7.139938,13.17059,-7.934066,90,90,-0.07965012,3.168107,42.25324,0.3265411,47.36581,0.8815304,0.4304015,0.2731952,0.2858493,-0.8979711,-45.88869,-27.35665,24.27018,-26.68716,31.76471,1.04,1124,31,18,0,25.09804,24.70588,0.6271822,14.50816,0.07,3.557552,150.8686,349.4,1.761287,5.244964,2377,60,4053,0.97,2.013488,1.882813,1.992992,1.890625,0,0,0,0,0,0,0,0,0,0,0,0,13.04,0,0,0,0,0,0,0,0,0,80,34,0,0,0,0,0,0,0,0,0,0,0,0,0,0,0,0,0,0,0,0,0,0,0,0,0,0,0,0,0,0,0,0,0,0,0,0,0,0,0,0,0,0,0,0,0,0,0,0,0,0,0,0,0,0,0,13.1,0.02430382,0,29.19558,2.164407,0.03207673,5.610013,2.961795,1,5.299017
179.014,41.0105,1.156579,8.97094,-33.65938,-18.2386,14.26625,90,90,-0.1414443,3.084478,42.25324,0.3284942,47.12658,0.8639873,1.059773,-1.206882,1.542423,6.24697,-48.51914,-19.67429,34.29762,-28.32976,65.09804,1.13,1131.5,31,18,0,30.58824,30.58824,0.8917463,15.86886,0.16,3.486754,148.9355,349.4,1.752391,5.242708,2377,60,4053,0.97,1.765584,1.617188,1.725568,1.589844,0,0,0,0,0,0,0,0,0,0,0,0,13.04,0,0,0,0,0,0,0,0,0,80,34,0,0,0,0,0,0,0,0,0,0,0,0,0,0,0,0,0,0,0,0,0,0,0,0,0,0,0,0,0,0,0,0,0,0,0,0,0,0,0,0,0,0,0,0,0,0,0,0,0,0,0,0,0,0,0,13.1,0.003133179,0,25.60097,2.205614,0.03226858,5.538132,2.99062,1,5.299017
180.014,41.0105,1.156579,8.97094,-11.34329,-8.812317,-1.845077,90,90,-0.1414443,3.084478,42.25324,0.3284942,47.12658,0.8639873,-1.024757,-0.5527749,-0.1743009,7.607127,-47.00254,-22.31151,38.14944,-32.01772,65.09804,1.13,1131.5,31,18,0,30.58824,30.58824,0.8917463,15.86886,0.16,3.486754,148.9355,349.5,1.752391,5.242708,2377,60,4053,0.97,1.765584,1.617188,1.725568,1.589844,0,0,0,0,0,0,0,0,0,0,0,0,13.04,0,0,0,0,0,0,0,0,0,80,34,0,0,0,0,0,0,0,0,0,0,0,0,0,0,0,0,0,0,0,0,0,0,0,0,0,0,0,0,0,0,0,0,0,0,0,0,0,0,0,0,0,0,0,0,0,0,0,0,0,0,0,0,0,0,0,13.1,0.003133179,0,25.60097,2.205614,0.03226858,5.538132,2.99062,1,5.299017
181.014,40.38913,1.596695,8.973013,5.955917,2.980698,-21.51677,90,90,-0.1416717,4.56051,42.25324,0.3305674,66.06071,1.192763,-0.3992592,-0.717141,0.6052215,4.953961,-48.23881,-23.68811,32.96692,-28.54341,0,1.05,1056.5,30,18,0,14.90196,14.90196,0.5967284,13.76802,0.08,4.813578,147.7721,349.5,2.456452,5.241334,2377,60,4053,0.97,5.554416,3.191406,4.373456,3.007813,0,0,0,0,0,0,0,0,0,0,0,0,13.04,0,0,0,0,0,0,0,0,0,80,34,0,0,0,0,0,0,0,0,0,0,0,0,0,0,0,0,0,0,0,0,0,0,0,0,0,0,0,0,0,0,0,0,0,0,0,0,0,0,0,0,0,0,0,0,0,0,0,0,0,0,0,0,0,0,0,13.6,-0.01284233,0,80.53903,2.237008,0.03247224,5.494872,3.025677,1,5.299017
182.014,40.38913,1.596695,8.973013,2.047211,7.021927,9.761017,90,90,-0.1416717,4.56051,42.25324,0.3305674,66.06071,1.192763,0.6582811,0.6492684,-0.1357733,5.470475,-49.87319,-22.89082,34.39781,-26.42549,0,1.05,1056.5,30,18,0,14.90196,14.90196,0.5967284,13.76802,0.08,4.813578,147.7721,349.5,2.456452,5.241334,2377,60,4053,0.97,5.554416,3.191406,4.373456,3.007813,0,0,0,0,0,0,0,0,0,0,0,0,13.04,0,0,0,0,0,0,0,0,0,80,34,0,0,0,0,0,0,0,0,0,0,0,0,0,0,0,0,0,0,0,0,0,0,0,0,0,0,0,0,0,0,0,0,0,0,0,0,0,0,0,0,0,0,0,0,0,0,0,0,0,0,0,0,0,0,0,13.6,-0.01284233,0,80.53903,2.237008,0.03247224,5.494872,3.025677,1,5.299017
183.014,26.09759,0,8.973013,2.887329,12.82283,-14.93129,90,90,-1.577524,0,42.25324,0.3305674,0,0,2.333214,1.424899,-1.539912,6.572399,-47.24245,-20.18875,31.34122,-31.46593,1.960784,1,944.5,30,18,0,14.90196,14.90196,0.5358912,11.76102,0.03,0,146.1464,349.6,0,5.239286,2377,60,4053,0.97,3.77956,2.777344,3.800544,2.839844,0,0,0,0,0,0,0,0,0,0,0,0,13.04,0,0,0,0,0,0,0,0,0,80,34,0,0,0,0,0,0,0,0,0,0,0,0,0,0,0,0,0,0,0,0,0,0,0,0,0,0,0,0,0,0,0,0,0,0,0,0,0,0,0,0,0,0,0,0,0,0,0,0,0,0,0,0,0,0,0,13.6,-0.3278178,0,54.80362,2.261893,0.03247224,5.434419,3.055106,1,5.299017
184.015,26.09759,0,8.973013,-29.009,13.61757,-70.35019,90,90,-1.577524,0,42.25324,0.3305674,0,0,0.4947527,1.524308,-2.733852,8.818535,-33.14721,-32.2151,11.05861,-30.75269,1.960784,1,944.5,30,18,0,14.90196,14.90196,0.5358912,11.76102,0.03,0,146.1464,349.6,0,5.239286,2377,60,4053,0.97,3.77956,2.777344,3.800544,2.839844,0,0,0,0,0,0,0,0,0,0,0,0,13.04,0,0,0,0,0,0,0,0,0,80,34,0,0,0,0,0,0,0,0,0,0,0,0,0,0,0,0,0,0,0,0,0,0,0,0,0,0,0,0,0,0,0,0,0,0,0,0,0,0,0,0,0,0,0,0,0,0,0,0,0,0,0,0,0,0,0,13.6,-0.3278178,0,54.80362,2.261893,0.03247224,5.434419,3.055106,1,5.299017
185.015,13.04879,0.03902552,8.973063,29.68514,12.64647,17.0024,90,90,-3.171072,0.127934,42.25324,0.3306182,4.99763,0.02915284,-1.599071,-1.295773,1.325297,-9.153864,-48.01215,-29.63628,7.470556,-31.60098,21.56863,1.01,920.5,30,18,0,14.90196,14.90196,0.5781811,11.57679,0.04,0.1176508,145.5147,349.6,0.1858357,5.238479,2377,60,4053,0.97,3.014376,2.496094,2.992416,2.558594,0,0,0,0,0,0,0,0,0,0,0,0,13.04,0,0,0,0,0,0,0,0,0,80,34,0,0,0,0,0,0,0,0,0,0,0,0,0,0,0,0,0,0,0,0,0,0,0,0,0,0,0,0,0,0,0,0,0,0,0,0,0,0,0,0,0,0,0,0,0,0,0,0,0,0,0,0,0,0,0,13.4,-0.6625029,0,43.70845,2.27206,0.03247723,5.410931,3.085272,1,5.299017
186.015,6.835083,0.436225,8.97365,-5.890777,-0.1802826,3.055817,90,90,-2.445508,1.431594,42.25324,0.331205,106.6479,0.3258687,0.8013771,1.24931,-0.8252513,-3.568976,-52.06991,-28.75114,23.37715,-28.40096,21.17647,1.01,919.5,30,18,0,14.90196,14.90196,0.6028528,11.56421,0.04,1.315093,145.4212,349.6,3.965679,5.238369,2377,60,4053,0.97,3.141256,2.554688,3.016328,2.570313,0,0,0,0,0,0,0,0,0,0,0,0,13.04,0,0,0,0,0,0,0,0,0,80,34,0,0,0,0,0,0,0,0,0,0,0,0,0,0,0,0,0,0,0,0,0,0,0,0,0,0,0,0,0,0,0,0,0,0,0,0,0,0,0,0,0,0,0,0,0,0,0,0,0,0,0,0,0,0,0,13.4,-0.8169194,0,45.54821,2.277556,0.03253488,5.407454,3.11436,1,5.299017
187.015,6.835083,0.436225,8.97365,-1.221634,0.01992798,-1.130157,90,90,-2.445508,1.431594,42.25324,0.331205,106.6479,0.3258687,0.06587436,0.04404432,-0.2667117,-1.737883,-50.59542,-29.32052,23.94004,-27.07385,21.17647,1.01,919.5,30,18,0,14.90196,14.90196,0.6028528,11.56421,0.04,1.315093,145.4212,349.6,3.965679,5.238369,2377,60,4053,0.97,3.141256,2.554688,3.016328,2.570313,0,0,0,0,0,0,0,0,0,0,0,0,13.04,0,0,0,0,0,0,0,0,0,80,34,0,0,0,0,0,0,0,0,0,0,0,0,0,0,0,0,0,0,0,0,0,0,0,0,0,0,0,0,0,0,0,0,0,0,0,0,0,0,0,0,0,0,0,0,0,0,0,0,0,0,0,0,0,0,0,13.4,-0.8169194,0,45.54821,2.277556,0.03253488,5.407454,3.11436,1,5.299017
188.015,0,0.6334531,8.974472,-1.275421,-7.222962,4.358154,90,90,-1.65243,1.905788,42.25324,0.3320271,0,0.473202,0.3734298,0.2963923,-0.3341118,-0.01891274,-49.15137,-29.83625,23.77542,-27.23109,21.56863,1.01,1003,31,18,0,14.90196,14.90196,0.8925985,12.61436,0.04,1.90968,145.7822,349.6,0,5.23885,2377,60,4053,0.97,6.127816,3.148438,3.448696,2.726563,0,0,0,0,0,0,0,0,0,0,0,0,13.04,0,0,0,0,0,0,0,0,0,80,34,0,0,0,0,0,0,0,0,0,0,0,0,0,0,0,0,0,0,0,0,0,0,0,0,0,0,0,0,0,0,0,0,0,0,0,0,0,0,0,0,0,0,0,0,0,0,0,0,0,0,0,0,0,0,0,12.5,-0.992989,0,88.85333,2.277556,0.03261563,5.420876,3.149153,2,5.299023
189.017,0,0.6334531,8.974472,5.361801,-2.503326,-4.938461,90,90,-1.65243,1.905788,42.25324,0.3320271,0,0.473202,0.01824376,-0.04869968,-0.109308,2.438736,-52.03802,-32.44622,26.24532,-22.89986,21.56863,1.01,1003,31,18,0,14.90196,14.90196,0.8925985,12.61436,0.04,1.90968,145.7822,349.7,0,5.23885,2377,60,4053,0.97,6.127816,3.148438,3.448696,2.726563,0,0,0,0,0,0,0,0,0,0,0,0,13.04,0,0,0,0,0,0,0,0,0,80,34,0,0,0,0,0,0,0,0,0,0,0,0,0,0,0,0,0,0,0,0,0,0,0,0,0,0,0,0,0,0,0,0,0,0,0,0,0,0,0,0,0,0,0,0,0,0,0,0,0,0,0,0,0,0,0,12.5,-0.992989,0,88.85333,2.277556,0.03261563,5.420876,3.149153,2,5.299023
190.016,0,0,8.974472,-11.57934,-8.602173,7.730393,90,90,-0.8803478,0,42.25324,0.3320271,0,0,0.7534375,-0.2976797,0.1853657,7.873789,-56.00323,-32.91049,29.89966,-17.05193,0,0.47,0,31,18,0,14.90196,14.90196,0,0,-0.5,0,145.7822,349.7,0,5.23885,2377,60,4053,0.97,5.302608,3.0625,3.902048,2.859375,0,0,0,0,0,0,0,0,0,0,0,0,13.04,0,0,0,0,0,0,0,0,0,80,34,0,0,0,0,0,0,0,0,0,0,0,0,0,0,0,0,0,0,0,0,0,0,0,0,0,0,0,0,0,0,0,0,0,0,0,0,0,0,0,0,0,0,0,0,0,0,0,0,0,0,0,0,0,0,0,12.5,-0.992989,0,76.88782,2.277556,0.03261563,5.420876,3.178364,2,7.051625
191.016,0,0,8.974472,-0.1568756,-4.216461,21.22827,90,90,-0.8803478,0,42.25324,0.3320271,0,0,1.454915,0.3255622,-1.667509,11.43495,-46.66936,-31.23143,41.60078,-39.56444,0,0.47,0,31,18,0,14.90196,14.90196,0,0,-0.5,0,145.7822,349.7,0,5.23885,2377,60,4053,0.97,5.302608,3.0625,3.902048,2.859375,0,0,0,0,0,0,0,0,0,0,0,0,13.04,0,0,0,0,0,0,0,0,0,80,34,0,0,0,0,0,0,0,0,0,0,0,0,0,0,0,0,0,0,0,0,0,0,0,0,0,0,0,0,0,0,0,0,0,0,0,0,0,0,0,0,0,0,0,0,0,0,0,0,0,0,0,0,0,0,0,12.5,-0.992989,0,76.88782,2.277556,0.03261563,5.420876,3.178364,2,7.051625
