Time (sec),Vehicle speed (MPH),Fuel rate (l/hr),Total CO2 (kg), Rotation Rate X (deg/s), Rotation Rate Y (deg/s), Rotation Rate Z (deg/s),Engine coolant temperature (°C),Engine coolant temperature 1 (°C),Acceleration (m/s²),Engine Torque (kg•m),Max Speed (MPH),Total Trip CO2 (kg),Instant CO2 rate (g/km),CO2 flow (g/s), Accel X (m/s²), Accel Y (m/s²), Accel Z (m/s²), Roll (deg), Pitch (deg),Magnetometer X (µT), Magnetometer Y (µT), Magnetometer Z (µT),Calculated load value (%), Intake manifold absolute pressure (bar), Engine RPM (RPM), Intake air temperature (°C), Ambient air temperature (°C), Absolute throttle position B (%), Accelerator pedal position D (%), Accelerator pedal position E (%), Intake manifold absolute pressure (bar), Mass air flow rate (g/s), Boost (bar),Engine Power (kW),Average Trip CO2 Rate (g/km),Altitude (m),Instant fuel economy (l/100 km),Total fuel economy (l/100 km), Time since engine start (sec), Number of warm-ups since DTCs cleared, Distance traveled since DTCs cleared (km), Barometric pressure (bar),O2 sensor lambda wide range (current probe)  (Bank 1  Sensor 1),O2 sensor current wide range (Bank 1  Sensor 1) (mA),O2 sensor lambda wide range (current probe)  (Bank 1  Sensor 2),O2 sensor current wide range (Bank 1  Sensor 2) (mA),O2 sensor lambda wide range (current probe)  (Bank 1  Sensor 3),O2 sensor current wide range (Bank 1  Sensor 3) (mA),O2 sensor lambda wide range (current probe)  (Bank 1  Sensor 4),O2 sensor current wide range (Bank 1  Sensor 4) (mA),O2 sensor lambda wide range (current probe)  (Bank 2  Sensor 1),O2 sensor current wide range (Bank 2  Sensor 1) (mA),O2 sensor lambda wide range (current probe)  (Bank 2  Sensor 2),O2 sensor current wide range (Bank 2  Sensor 2) (mA),O2 sensor lambda wide range (current probe)  (Bank 2  Sensor 3),O2 sensor current wide range (Bank 2  Sensor 3) (mA),O2 sensor lambda wide range (current probe)  (Bank 2  Sensor 4),O2 sensor current wide range (Bank 2  Sensor 4) (mA), Control module voltage (V), Absolute throttle position C (%), Mass air flow sensor B (g/s), Relative throttle B position (%), Commanded boost pressure A (bar), Boost pressure sensor A (bar), Commanded boost pressure B (bar), Boost pressure sensor B (bar), Boost pressure A control status, Boost pressure B control status,Charge air cooler temperature bank 1  sensor 1 (°C),Charge air cooler temperature bank 1  sensor 2 (°C), Manifold surface temperature (°C), Intake manifold absolute pressure A (bar), Intake manifold absolute pressure B (bar),Total run time with EI-AECD #11 Timer 1 active (sec),Total run time with EI-AECD #11 Timer 2 active (sec),Total run time with EI-AECD #12 Timer 1 active (sec),Total run time with EI-AECD #12 Timer 2 active (sec), Diesel aftertreatment status,O2 sensor concentration bank 1 sensor 1 (%),O2 sensor concentration bank 1 sensor 2 (%),O2 sensor concentration bank 2 sensor 1 (%),O2 sensor concentration bank 2 sensor 2 (%), Absolute throttle position G (%),Target SCR Catalyst NH3 Storage A (g/L),Actual/Modelled SCR Catalyst NH3 Storage A (g/L),Target SCR Catalyst NH3 Storage B (g/L),Actual/Modelled SCR Catalyst NH3 Storage B (g/L), Hydrocarbon Doser Flow Rate (g/min), Hydrocarbon Doser Injector Duty Cycle (%),O2 sensor concentration bank 1 sensor 3 (%),O2 sensor concentration bank 1 sensor 4 (%),O2 sensor concentration bank 2 sensor 3 (%),O2 sensor concentration bank 2 sensor 4 (%),O2 sensor lambda bank 1 sensor 3,O2 sensor lambda bank 1 sensor 4,O2 sensor lambda bank 2 sensor 3,O2 sensor lambda bank 2 sensor 4, Engine Fuel Rate (g/s), Vehicle Fuel Rate (g/s), Engine Exhaust Flow Rate (g/s),Fuel System A Use Percentage Bank 1 (%),Fuel System A Use Percentage Bank 2 (%), Cylinder Fuel Rate, Transmission Actual Gear Status, Transmission Actual Gear Ratio, Vehicle Odometer Reading (km), Motorcycle ABS Disable Switch State, Maximum Current Vehicle Speed Limit (MPH), Alternative Fuel Tank Pressure (bar), Alternative Fuel Tank Temperature (°C),Crankcase Pressure Sensor (inH2O),Fuel System Status Bank 1,Fuel System Status Bank 2,Short Term Fuel Trim Bank 1 (%),Long Term Fuel Trim Bank 1 (%),Short Term Fuel Trim Bank 2 (%),Long Term Fuel Trim Bank 2 (%),O2 Sensor Concentration Bank 1 Sensor 5 (%),O2 Sensor Concentration Bank 1 Sensor 6 (%),O2 Sensor Concentration Bank 2 Sensor 5 (%),O2 Sensor Concentration Bank 2 Sensor 6 (%),O2 Sensor Lambda Bank 1 Sensor 5,O2 Sensor Lambda Bank 1 Sensor 6,O2 Sensor Lambda Bank 2 Sensor 5,O2 Sensor Lambda Bank 2 Sensor 6, Input voltage read by the scan tool (V), Acceleration (Avg) (m/s²), A/F Commanded, A/F Actual,Trip Distance (km), Trip Fuel (gal),Trip Fuel Economy (l/100 km),Trip Duration (min), Idling Count, Seconds Idling (sec)
0.000,0,0,0,0.08171082,3.855759,-2.278412,0,0,0,0,0,0,0,0,0.2780745,2.403679,1.893979,2.857076,-45.63991,-33.63382,6.393877,-13.17461,0,0,0,0,0,0,0,0,0,0,0,0,0,343.8,0,0,0,0,0,0,0,0,0,0,0,0,0,0,0,0,0,0,0,0,0,0,0,0,0,0,0,0,0,0,0,0,0,0,0,0,0,0,0,0,0,0,0,0,0,0,0,0,0,0,0,0,0,0,0,0,0,0,0,0,0,0,0,0,0,0,0,0,0,0,0,0,0,0,0,0,0,0,0,0,0,0,0,0,0,0,0,0,0,0,0,0,0,0,0,0,0,0,0
1.000,0,0,0,-1.118668,2.439941,1.730804,0,0,0,0,0,0,0,0,0.320842,0.7790756,1.331692,4.448107,-47.56907,-33.30117,10.79103,-15.80869,0,0,0,0,0,0,0,0,0,0,0,0,0,343.8,0,0,0,0,0,0,0,0,0,0,0,0,0,0,0,0,0,0,0,0,0,0,0,0,0,0,0,0,0,0,0,0,0,0,0,0,0,0,0,0,0,0,0,0,0,0,0,0,0,0,0,0,0,0,0,0,0,0,0,0,0,0,0,0,0,0,0,0,0,0,0,0,0,0,0,0,0,0,0,0,0,0,0,0,0,0,0,0,0,0,0,0,0,0,0,0,0,0,0
1.998,0,0,0,11.99034,14.77225,-3.825042,0,0,0,0,0,0,0,0,-1.141048,0.6095034,-0.1710199,-1.708249,-43.78633,-34.93595,6.062946,-17.64491,0,0,0,0,0,0,0,0,0,0,0,0,0,343.8,0,0,0,0,0,0,0,0,0,0,0,0,0,0,0,0,0,0,0,0,0,0,0,0,0,0,0,0,0,0,0,0,0,0,0,0,0,0,0,0,0,0,0,0,0,0,0,0,0,0,0,0,0,0,0,0,0,0,0,0,0,0,0,0,0,0,0,0,0,0,0,0,0,0,0,0,0,0,0,0,0,0,0,0,0,0,0,0,0,0,0,0,0,0,0,0,0,0,0
2.998,0,0,0,8.614548,8.64386,-1.168762,41,42,0,0,0,0,0,0,0.3273613,0.7086844,-1.510443,3.173903,-44.25661,-23.75611,13.21112,-26.84389,40,0.97,1090,22,22,0,14.90196,14.90196,0,13.61473,-0.03,0,0,343.8,0,5.454882,51,78,4543,0.97,2.120848,-0.00390625,1.820728,-0.00390625,0,0,0,0,0,0,0,0,0,0,0,0,12.82,0,0,0,0,0,0,0,0,0,30,33,0,0,0,0,0,0,0,0,0,0,0,0,0,0,0,0,0,0,0,0,0,0,0,0,0,0,0,0,0,0,0,0,0,0,0,0,0,0,0,0,0,0,0,0,0,0,0,0,0,0,0,0,0,0,0,12.9,0,0,30.7523,0,0,0,0,1,5E-06
4.000,0,0,0,-8.026047,-4.708282,9.446594,41,42,0,0,0,0,0,0,-0.01501442,0.4995618,0.0832881,1.939533,-44.07584,-22.77451,12.46375,-32.90538,40,0.97,1090,22,22,0,14.90196,14.90196,0,13.61473,-0.03,0,0,343.9,0,5.454882,51,78,4543,0.97,2.120848,-0.00390625,1.820728,-0.00390625,0,0,0,0,0,0,0,0,0,0,0,0,12.82,0,0,0,0,0,0,0,0,0,30,33,0,0,0,0,0,0,0,0,0,0,0,0,0,0,0,0,0,0,0,0,0,0,0,0,0,0,0,0,0,0,0,0,0,0,0,0,0,0,0,0,0,0,0,0,0,0,0,0,0,0,0,0,0,0,0,12.9,0,0,30.7523,0,0,0,0,1,5E-06
4.998,0,1.228133,27.53077,-21.49677,-24.51353,7.174896,41,42,0,3.08577,0,0.002917232,0,0.9174399,-1.05159,-0.02080347,0.736218,0.6295199,-41.99047,-22.60109,10.85618,-30.01382,69.01961,0.98,1201,22,22,0,32.94118,33.33333,0.7524735,15.05313,0.01,3.70247,0,343.9,0,5.45546,51,78,4543,0.97,1.42008,-0.00390625,1.39324,-0.00390625,0,0,0,0,0,0,0,0,0,0,0,0,12.82,0,0,0,0,0,0,0,0,0,30,33,0,0,0,0,0,0,0,0,0,0,0,0,0,0,0,0,0,0,0,0,0,0,0,0,0,0,0,0,0,0,0,0,0,0,0,0,0,0,0,0,0,0,0,0,0,0,0,0,0,0,0,0,0,0,0,12.9,0,0,20.59116,0,0.000286565,0,0.08577817,1,1.783085
5.998,3.106856,2.620128,27.53423,-5.082794,-21.79149,11.33328,41,42,0.3922846,5.798669,3.106856,0.0063737,1409.247,1.957287,0.4767035,0.3028283,0.09364294,2.944851,-41.93851,-30.35849,21.17429,-29.38049,70.19608,1.06,1363.5,22,22,0,14.90196,14.90196,0.8443824,18.48497,0.09,7.898934,2592.316,344,52.40252,5.456073,51,78,4543,0.97,2.37168,-0.00390625,2.294576,-0.00390625,0,0,0,0,0,0,0,0,0,0,0,0,12.82,0,0,0,0,0,0,0,0,0,30,33,0,0,0,0,0,0,0,0,0,0,0,0,0,0,0,0,0,0,0,0,0,0,0,0,0,0,0,0,0,0,0,0,0,0,0,0,0,0,0,0,0,0,0,0,0,0,0,0,0,0,0,0,0,0,0,12.9,0.07845692,0,34.38936,0.00245869,0.0006261002,96.39465,0.1155543,1,3.569087
7.002,3.106856,2.620128,27.53423,-17.76135,8.781662,4.705109,41,42,0.3922846,5.798669,3.106856,0.0063737,1409.247,1.957287,1.352921,0.9307412,-1.234457,13.16493,-34.66569,-25.75159,-4.893429,-50.54105,70.19608,1.06,1363.5,22,22,0,14.90196,14.90196,0.8443824,18.48497,0.09,7.898934,2592.316,344,52.40252,5.456073,51,78,4543,0.97,2.37168,-0.00390625,2.294576,-0.00390625,0,0,0,0,0,0,0,0,0,0,0,0,12.82,0,0,0,0,0,0,0,0,0,30,33,0,0,0,0,0,0,0,0,0,0,0,0,0,0,0,0,0,0,0,0,0,0,0,0,0,0,0,0,0,0,0,0,0,0,0,0,0,0,0,0,0,0,0,0,0,0,0,0,0,0,0,0,0,0,0,12.9,0.07845692,0,34.38936,0.00245869,0.0006261002,96.39465,0.1155543,1,3.569087
8.001,4.97097,1.362186,27.53606,-0.5014648,11.82845,15.37544,41,42,0.6234652,4.133259,4.97097,0.008212673,457.9109,1.01758,0.2767525,-0.3871386,-0.2261908,9.127476,-45.87334,-28.78735,18.97465,-51.3103,37.64706,0.99,994.5,22,22,0,27.45098,27.45098,0.3801899,12.59209,0.02,4.1066,1270.546,344,17.02731,5.456321,51,78,4543,0.97,1.522072,-0.00390625,1.499624,-0.00390625,0,0,0,0,0,0,0,0,0,0,0,0,12.82,0,0,0,0,0,0,0,0,0,30,33,0,0,0,0,0,0,0,0,0,0,0,0,0,0,0,0,0,0,0,0,0,0,0,0,0,0,0,0,0,0,0,0,0,0,0,0,0,0,0,0,0,0,0,0,0,0,0,0,0,0,0,0,0,0,0,12.9,0.124693,0,22.07004,0.006463896,0.0008067459,47.24494,0.1446534,1,5.315034
9.002,4.97097,1.362186,27.53606,5.177902,36.72458,-2.195328,41,42,0.6234652,4.133259,4.97097,0.008212673,457.9109,1.01758,-0.5478761,-0.003288507,0.6259521,5.274259,-43.38651,-28.81273,30.3538,-49.35971,37.64706,0.99,994.5,22,22,0,27.45098,27.45098,0.3801899,12.59209,0.02,4.1066,1270.546,343.9,17.02731,5.456321,51,78,4543,0.97,1.522072,-0.00390625,1.499624,-0.00390625,0,0,0,0,0,0,0,0,0,0,0,0,12.82,0,0,0,0,0,0,0,0,0,30,33,0,0,0,0,0,0,0,0,0,0,0,0,0,0,0,0,0,0,0,0,0,0,0,0,0,0,0,0,0,0,0,0,0,0,0,0,0,0,0,0,0,0,0,0,0,0,0,0,0,0,0,0,0,0,0,12.9,0.124693,0,22.07004,0.006463896,0.0008067459,47.24494,0.1446534,1,5.315034
10.003,6.835083,1.122833,27.53752,-2.085785,9.393158,4.740204,41,42,0.4697534,2.92217,6.835083,0.009668328,274.5094,0.8387786,0.4575023,-0.6602411,0.9877409,0.9556842,-41.3616,-20.54871,29.7383,-53.20522,63.13726,1.02,1159.5,24,22,0,27.05882,27.05882,0.8011459,15.12616,0.05,3.38502,819.3211,344.1,10.20757,5.456454,51,78,4543,0.97,1.4518,-0.00390625,1.409344,-0.00390625,0,0,0,0,0,0,0,0,0,0,0,0,12.82,0,0,0,0,0,0,0,0,0,30,33,0,0,0,0,0,0,0,0,0,0,0,0,0,0,0,0,0,0,0,0,0,0,0,0,0,0,0,0,0,0,0,0,0,0,0,0,0,0,0,0,0,0,0,0,0,0,0,0,0,0,0,0,0,0,0,12.9,0.1724076,0,21.0511,0.01180041,0.0009497375,30.46626,0.1796859,1,7.416983
11.004,6.835083,1.122833,27.53752,9.190918,-4.800354,1.257156,41,42,0.4697534,2.92217,6.835083,0.009668328,274.5094,0.8387786,0.07669429,-0.1862116,0.3322612,-0.05720541,-41.16635,-18.70335,31.55245,-52.74991,63.13726,1.02,1159.5,24,22,0,27.05882,27.05882,0.8011459,15.12616,0.05,3.38502,819.3211,344.1,10.20757,5.456454,51,78,4543,0.97,1.4518,-0.00390625,1.409344,-0.00390625,0,0,0,0,0,0,0,0,0,0,0,0,12.82,0,0,0,0,0,0,0,0,0,30,33,0,0,0,0,0,0,0,0,0,0,0,0,0,0,0,0,0,0,0,0,0,0,0,0,0,0,0,0,0,0,0,0,0,0,0,0,0,0,0,0,0,0,0,0,0,0,0,0,0,0,0,0,0,0,0,12.9,0.1724076,0,21.0511,0.01180041,0.0009497375,30.46626,0.1796859,1,7.416983
12.005,8.699197,2.077122,27.54078,12.58913,5.520264,-1.552399,41,42,0.4378316,5.359482,8.699197,0.01292795,398.9961,1.551651,0.6468826,-0.3209051,0.7940986,2.80462,-39.27364,-21.64861,29.83413,-52.30269,71.37255,1.04,1169.5,24,22,0,30.58824,30.58824,0.7630811,15.45107,0.07,6.261928,648.5895,344.1,14.83657,5.456864,51,78,4543,0.97,1.39812,-0.00390625,1.412272,-0.00390625,0,0,0,0,0,0,0,0,0,0,0,0,12.82,0,0,0,0,0,0,0,0,0,30,33,0,0,0,0,0,0,0,0,0,0,0,0,0,0,0,0,0,0,0,0,0,0,0,0,0,0,0,0,0,0,0,0,0,0,0,0,0,0,0,0,0,0,0,0,0,0,0,0,0,0,0,0,0,0,0,12.9,0.2122594,0,20.27274,0.01993241,0.001269936,24.11765,0.2088175,1,7.416983
13.006,8.699197,2.077122,27.54078,10.61537,-29.29764,44.64177,41,42,0.4378316,5.359482,8.699197,0.01292795,398.9961,1.551651,-1.924806,0.01292842,2.893011,0.3590608,-42.79315,-20.35192,39.27153,-42.98529,71.37255,1.04,1169.5,24,22,0,30.58824,30.58824,0.7630811,15.45107,0.07,6.261928,648.5895,344.1,14.83657,5.456864,51,78,4543,0.97,1.39812,-0.00390625,1.412272,-0.00390625,0,0,0,0,0,0,0,0,0,0,0,0,12.82,0,0,0,0,0,0,0,0,0,30,33,0,0,0,0,0,0,0,0,0,0,0,0,0,0,0,0,0,0,0,0,0,0,0,0,0,0,0,0,0,0,0,0,0,0,0,0,0,0,0,0,0,0,0,0,0,0,0,0,0,0,0,0,0,0,0,12.9,0.2122594,0,20.27274,0.01993241,0.001269936,24.11765,0.2088175,1,7.416983
14.009,11.18468,2.400276,27.5439,19.2944,3.491302,1.664215,41,42,0.5185454,5.567304,11.18468,0.01605062,358.6108,1.793054,-0.2900462,0.05647011,-0.9040077,9.616823,-39.0858,-24.63783,38.48771,-40.86136,61.96078,1.04,1301,24,22,0,22.35294,20.39216,0.7733836,17.1884,0.07,7.236145,560.5764,344.1,13.33486,5.45723,51,78,4543,0.97,2.968504,-0.00390625,2.953376,-0.00390625,0,0,0,0,0,0,0,0,0,0,0,0,12.82,0,0,0,0,0,0,0,0,0,30,33,0,0,0,0,0,0,0,0,0,0,0,0,0,0,0,0,0,0,0,0,0,0,0,0,0,0,0,0,0,0,0,0,0,0,0,0,0,0,0,0,0,0,0,0,0,0,0,0,0,0,0,0,0,0,0,12.9,0.2761167,0,43.04331,0.02863235,0.001576682,20.8449,0.2385525,1,7.416983
15.008,11.18468,2.400276,27.5439,5.032547,8.527939,21.95952,41,42,0.5185454,5.567304,11.18468,0.01605062,358.6108,1.793054,0.1059818,0.6281329,-0.7516904,14.52757,-39.78067,-19.14607,41.46174,-42.70503,61.96078,1.04,1301,24,22,0,22.35294,20.39216,0.7733836,17.1884,0.07,7.236145,560.5764,344,13.33486,5.45723,51,78,4543,0.97,2.968504,-0.00390625,2.953376,-0.00390625,0,0,0,0,0,0,0,0,0,0,0,0,12.82,0,0,0,0,0,0,0,0,0,30,33,0,0,0,0,0,0,0,0,0,0,0,0,0,0,0,0,0,0,0,0,0,0,0,0,0,0,0,0,0,0,0,0,0,0,0,0,0,0,0,0,0,0,0,0,0,0,0,0,0,0,0,0,0,0,0,12.9,0.2761167,0,43.04331,0.02863235,0.001576682,20.8449,0.2385525,1,7.416983
16.008,11.18468,1.505237,27.54593,2.124756,17.64619,9.869415,41,42,0.3192867,3.679382,11.18468,0.018077,224.8884,1.124442,-1.713739,1.07627,0.007170675,12.71234,-45.47572,-10.15028,43.36273,-39.62183,26.66667,1,1234.5,24,22,0,20.78431,20.78431,0.5021991,15.68252,0.03,4.537859,479.515,344.1,8.362424,5.457367,51,78,4543,0.97,2.218448,-0.00390625,1.954928,-0.00390625,0,0,0,0,0,0,0,0,0,0,0,0,12.82,0,0,0,0,0,0,0,0,0,30,33,0,0,0,0,0,0,0,0,0,0,0,0,0,0,0,0,0,0,0,0,0,0,0,0,0,0,0,0,0,0,0,0,0,0,0,0,0,0,0,0,0,0,0,0,0,0,0,0,0,0,0,0,0,0,0,12.9,0.2761167,0,32.1675,0.0376985,0.001775736,17.83065,0.2678972,1,7.416983
17.009,11.18468,1.505237,27.54593,-1.437897,12.45213,19.05646,41,42,0.3192867,3.679382,11.18468,0.018077,224.8884,1.124442,-0.6645153,1.018093,0.4235727,11.26951,-42.46131,-2.892754,36.14453,-40.19751,26.66667,1,1234.5,24,22,0,20.78431,20.78431,0.5021991,15.68252,0.03,4.537859,479.515,343.9,8.362424,5.457367,51,78,4543,0.97,2.218448,-0.00390625,1.954928,-0.00390625,0,0,0,0,0,0,0,0,0,0,0,0,12.82,0,0,0,0,0,0,0,0,0,30,33,0,0,0,0,0,0,0,0,0,0,0,0,0,0,0,0,0,0,0,0,0,0,0,0,0,0,0,0,0,0,0,0,0,0,0,0,0,0,0,0,0,0,0,0,0,0,0,0,0,0,0,0,0,0,0,12.9,0.2761167,0,32.1675,0.0376985,0.001775736,17.83065,0.2678972,1,7.416983
18.010,11.18468,0.7734859,27.54694,-23.26851,-8.666306,2.859909,41,42,5.551115E-17,1.811461,11.18468,0.01908672,115.5619,0.5778093,0.05553312,-1.257498,0.1027746,12.90129,-52.30598,-1.645393,41.0138,-28.6441,50.98039,0.99,1288.5,23,22,0,25.09804,25.09804,0.6319136,16.20483,0.02,2.331838,411.5124,343.8,4.297141,5.457315,51,78,4543,0.97,1.548424,-0.00390625,1.546472,-0.00390625,0,0,0,0,0,0,0,0,0,0,0,0,12.82,0,0,0,0,0,0,0,0,0,30,33,0,0,0,0,0,0,0,0,0,0,0,0,0,0,0,0,0,0,0,0,0,0,0,0,0,0,0,0,0,0,0,0,0,0,0,0,0,0,0,0,0,0,0,0,0,0,0,0,0,0,0,0,0,0,0,12.9,0.2761167,0,22.45215,0.04638189,0.001874924,15.30199,0.3029168,1,7.416983
19.011,11.80605,1.53244,27.54934,23.43407,20.35497,-19.48456,41,42,0.06590922,3.385275,11.80605,0.02148829,216.9025,1.144763,-0.6184534,0.6761872,-0.884274,6.845789,-43.629,-3.643906,33.1478,-35.7114,54.90196,1.03,1366,23,22,0,26.66667,26.27451,0.6253126,17.93398,0.06,4.619869,373.6858,343.7,8.06547,5.457468,51,78,4543,0.97,1.571848,-0.00390625,1.58112,-0.00390625,0,0,0,0,0,0,0,0,0,0,0,0,12.82,0,0,0,0,0,0,0,0,0,30,33,0,0,0,0,0,0,0,0,0,0,0,0,0,0,0,0,0,0,0,0,0,0,0,0,0,0,0,0,0,0,0,0,0,0,0,0,0,0,0,0,0,0,0,0,0,0,0,0,0,0,0,0,0,0,0,12.9,0.2892985,0,22.7918,0.05750362,0.002110834,13.89542,0.3316749,1,7.416983
20.011,11.80605,1.53244,27.54934,1.434998,-0.2604065,6.896622,41,42,0.06590922,3.385275,11.80605,0.02148829,216.9025,1.144763,-0.4932889,-0.09471048,-0.1633592,6.557194,-44.434,-4.844719,32.84026,-35.60599,54.90196,1.03,1366,23,22,0,26.66667,26.27451,0.6253126,17.93398,0.06,4.619869,373.6858,343.7,8.06547,5.457468,51,78,4543,0.97,1.571848,-0.00390625,1.58112,-0.00390625,0,0,0,0,0,0,0,0,0,0,0,0,12.82,0,0,0,0,0,0,0,0,0,30,33,0,0,0,0,0,0,0,0,0,0,0,0,0,0,0,0,0,0,0,0,0,0,0,0,0,0,0,0,0,0,0,0,0,0,0,0,0,0,0,0,0,0,0,0,0,0,0,0,0,0,0,0,0,0,0,12.9,0.2892985,0,22.7918,0.05750362,0.002110834,13.89542,0.3316749,1,7.416983
21.012,11.80605,1.53244,27.54934,16.66667,15.09201,-12.33282,41,42,0.06590922,3.385275,11.80605,0.02148829,216.9025,1.144763,-0.7726657,0.2207127,-0.2315295,2.183569,-41.72562,-4.279236,30.28766,-38.87979,54.90196,1.03,1366,23,22,0,26.66667,26.27451,0.6253126,17.93398,0.06,4.619869,373.6858,343.6,8.06547,5.457468,51,78,4543,0.97,1.571848,-0.00390625,1.58112,-0.00390625,0,0,0,0,0,0,0,0,0,0,0,0,12.82,0,0,0,0,0,0,0,0,0,30,33,0,0,0,0,0,0,0,0,0,0,0,0,0,0,0,0,0,0,0,0,0,0,0,0,0,0,0,0,0,0,0,0,0,0,0,0,0,0,0,0,0,0,0,0,0,0,0,0,0,0,0,0,0,0,0,12.9,0.2892985,0,22.7918,0.05750362,0.002110834,13.89542,0.3316749,1,7.416983
22.012,12.42742,1.70817,27.55156,-9.045959,-12.61615,6.977264,41,42,0.1458698,3.60964,12.42742,0.02370307,229.6866,1.276037,0.2544585,-0.1567217,0.6753118,0.6173302,-40.77228,-5.767342,29.94593,-39.74774,51.76471,1.04,1428,23,22,0,24.70588,24.31373,0.6105113,18.92999,0.07,5.149643,352.9688,343.6,8.540844,5.457626,70,78,4543,0.97,4.943928,-0.00390625,7.797264,-0.00390625,0,0,0,0,0,0,0,0,0,0,0,0,12.88,0,0,0,0,0,0,0,0,0,34,32,0,0,0,0,0,0,0,0,0,0,0,0,0,0,0,0,0,0,0,0,0,0,0,0,0,0,0,0,0,0,0,0,0,0,0,0,0,0,0,0,0,0,0,0,0,0,0,0,0,0,0,0,0,0,0,12.9,0.3052907,0,71.68696,0.06715343,0.002328396,13.12506,0.3691732,1,7.416983
23.013,12.42742,1.70817,27.55156,21.53148,24.40013,-9.99733,41,42,0.1458698,3.60964,12.42742,0.02370307,229.6866,1.276037,1.521767,-0.8003383,0.9853198,8.307066,-41.31668,-6.244965,37.65905,-44.08511,51.76471,1.04,1428,23,22,0,24.70588,24.31373,0.6105113,18.92999,0.07,5.149643,352.9688,343.5,8.540844,5.457626,70,78,4543,0.97,4.943928,-0.00390625,7.797264,-0.00390625,0,0,0,0,0,0,0,0,0,0,0,0,12.88,0,0,0,0,0,0,0,0,0,34,32,0,0,0,0,0,0,0,0,0,0,0,0,0,0,0,0,0,0,0,0,0,0,0,0,0,0,0,0,0,0,0,0,0,0,0,0,0,0,0,0,0,0,0,0,0,0,0,0,0,0,0,0,0,0,0,12.9,0.3052907,0,71.68696,0.06715343,0.002328396,13.12506,0.3691732,1,7.416983
24.013,12.42742,1.70817,27.55156,12.82233,-11.70688,-38.9977,41,42,0.1458698,3.60964,12.42742,0.02370307,229.6866,1.276037,0.3926536,0.5039386,0.2767565,-6.588687,-32.67789,1.740227,20.95456,-61.46048,51.76471,1.04,1428,23,22,0,24.70588,24.31373,0.6105113,18.92999,0.07,5.149643,352.9688,343.4,8.540844,5.457626,70,78,4543,0.97,4.943928,-0.00390625,7.797264,-0.00390625,0,0,0,0,0,0,0,0,0,0,0,0,12.88,0,0,0,0,0,0,0,0,0,34,32,0,0,0,0,0,0,0,0,0,0,0,0,0,0,0,0,0,0,0,0,0,0,0,0,0,0,0,0,0,0,0,0,0,0,0,0,0,0,0,0,0,0,0,0,0,0,0,0,0,0,0,0,0,0,0,12.9,0.3052907,0,71.68696,0.06715343,0.002328396,13.12506,0.3691732,1,7.416983
25.014,12.42742,1.70817,27.55156,26.96678,-12.05081,-21.53404,41,42,0.1458698,3.60964,12.42742,0.02370307,229.6866,1.276037,-0.8456597,-0.529624,-0.8823228,-3.634115,-27.60671,-2.913628,14.96734,-63.14394,51.76471,1.04,1428,23,22,0,24.70588,24.31373,0.6105113,18.92999,0.07,5.149643,352.9688,343.4,8.540844,5.457626,70,78,4543,0.97,4.943928,-0.00390625,7.797264,-0.00390625,0,0,0,0,0,0,0,0,0,0,0,0,12.88,0,0,0,0,0,0,0,0,0,34,32,0,0,0,0,0,0,0,0,0,0,0,0,0,0,0,0,0,0,0,0,0,0,0,0,0,0,0,0,0,0,0,0,0,0,0,0,0,0,0,0,0,0,0,0,0,0,0,0,0,0,0,0,0,0,0,12.9,0.3052907,0,71.68696,0.06715343,0.002328396,13.12506,0.3691732,1,7.416983
26.014,12.42742,1.70817,27.55156,11.90103,-23.23399,-34.39357,41,42,0.1458698,3.60964,12.42742,0.02370307,229.6866,1.276037,-1.248676,-0.8326694,0.4226846,-7.972281,-36.25535,-24.1501,21.71691,-50.5753,51.76471,1.04,1428,23,22,0,24.70588,24.31373,0.6105113,18.92999,0.07,5.149643,352.9688,343.4,8.540844,5.457626,70,78,4543,0.97,4.943928,-0.00390625,7.797264,-0.00390625,0,0,0,0,0,0,0,0,0,0,0,0,12.88,0,0,0,0,0,0,0,0,0,34,32,0,0,0,0,0,0,0,0,0,0,0,0,0,0,0,0,0,0,0,0,0,0,0,0,0,0,0,0,0,0,0,0,0,0,0,0,0,0,0,0,0,0,0,0,0,0,0,0,0,0,0,0,0,0,0,12.9,0.3052907,0,71.68696,0.06715343,0.002328396,13.12506,0.3691732,1,7.416983
27.015,12.42742,1.70817,27.55156,25.39343,1.235031,-14.27295,41,42,0.1458698,3.60964,12.42742,0.02370307,229.6866,1.276037,-0.7661509,0.06038855,0.2703536,-7.660841,-34.05013,-28.05169,17.95564,-50.5921,51.76471,1.04,1428,23,22,0,24.70588,24.31373,0.6105113,18.92999,0.07,5.149643,352.9688,343.5,8.540844,5.457626,70,78,4543,0.97,4.943928,-0.00390625,7.797264,-0.00390625,0,0,0,0,0,0,0,0,0,0,0,0,12.88,0,0,0,0,0,0,0,0,0,34,32,0,0,0,0,0,0,0,0,0,0,0,0,0,0,0,0,0,0,0,0,0,0,0,0,0,0,0,0,0,0,0,0,0,0,0,0,0,0,0,0,0,0,0,0,0,0,0,0,0,0,0,0,0,0,0,12.9,0.3052907,0,71.68696,0.06715343,0.002328396,13.12506,0.3691732,1,7.416983
28.015,12.42742,1.70817,27.55156,13.75842,-21.5703,-2.971191,41,42,0.1458698,3.60964,12.42742,0.02370307,229.6866,1.276037,0.8577795,0.06558029,-0.6570591,-0.9533293,-33.83583,-25.80489,17.49867,-51.88969,51.76471,1.04,1428,23,22,0,24.70588,24.31373,0.6105113,18.92999,0.07,5.149643,352.9688,343.4,8.540844,5.457626,70,78,4543,0.97,4.943928,-0.00390625,7.797264,-0.00390625,0,0,0,0,0,0,0,0,0,0,0,0,12.88,0,0,0,0,0,0,0,0,0,34,32,0,0,0,0,0,0,0,0,0,0,0,0,0,0,0,0,0,0,0,0,0,0,0,0,0,0,0,0,0,0,0,0,0,0,0,0,0,0,0,0,0,0,0,0,0,0,0,0,0,0,0,0,0,0,0,12.9,0.3052907,0,71.68696,0.06715343,0.002328396,13.12506,0.3691732,1,7.416983
29.015,12.42742,1.70817,27.55156,12.89168,-26.16216,-23.26009,41,42,0.1458698,3.60964,12.42742,0.02370307,229.6866,1.276037,0.6150266,0.681333,-1.111333,-3.750591,-30.33313,-20.46702,9.958223,-46.76559,51.76471,1.04,1428,23,22,0,24.70588,24.31373,0.6105113,18.92999,0.07,5.149643,352.9688,343.5,8.540844,5.457626,70,78,4543,0.97,4.943928,-0.00390625,7.797264,-0.00390625,0,0,0,0,0,0,0,0,0,0,0,0,12.88,0,0,0,0,0,0,0,0,0,34,32,0,0,0,0,0,0,0,0,0,0,0,0,0,0,0,0,0,0,0,0,0,0,0,0,0,0,0,0,0,0,0,0,0,0,0,0,0,0,0,0,0,0,0,0,0,0,0,0,0,0,0,0,0,0,0,12.9,0.3052907,0,71.68696,0.06715343,0.002328396,13.12506,0.3691732,1,7.416983
30.015,12.42742,1.70817,27.55156,22.88261,-36.43726,-34.14204,41,42,0.1458698,3.60964,12.42742,0.02370307,229.6866,1.276037,-1.646629,0.3933389,-1.428609,-17.64393,-28.54647,-28.98927,-3.381222,-30.51834,51.76471,1.04,1428,23,22,0,24.70588,24.31373,0.6105113,18.92999,0.07,5.149643,352.9688,343.5,8.540844,5.457626,70,78,4543,0.97,4.943928,-0.00390625,7.797264,-0.00390625,0,0,0,0,0,0,0,0,0,0,0,0,12.88,0,0,0,0,0,0,0,0,0,34,32,0,0,0,0,0,0,0,0,0,0,0,0,0,0,0,0,0,0,0,0,0,0,0,0,0,0,0,0,0,0,0,0,0,0,0,0,0,0,0,0,0,0,0,0,0,0,0,0,0,0,0,0,0,0,0,12.9,0.3052907,0,71.68696,0.06715343,0.002328396,13.12506,0.3691732,1,7.416983
31.015,12.42742,1.70817,27.55156,-13.31879,-11.47185,1.466293,41,42,0.1458698,3.60964,12.42742,0.02370307,229.6866,1.276037,-0.978319,-0.3304681,0.2591362,-12.20352,-36.54091,-30.19881,0.03553009,-23.99007,51.76471,1.04,1428,23,22,0,24.70588,24.31373,0.6105113,18.92999,0.07,5.149643,352.9688,343.6,8.540844,5.457626,70,78,4543,0.97,4.943928,-0.00390625,7.797264,-0.00390625,0,0,0,0,0,0,0,0,0,0,0,0,12.88,0,0,0,0,0,0,0,0,0,34,32,0,0,0,0,0,0,0,0,0,0,0,0,0,0,0,0,0,0,0,0,0,0,0,0,0,0,0,0,0,0,0,0,0,0,0,0,0,0,0,0,0,0,0,0,0,0,0,0,0,0,0,0,0,0,0,12.9,0.3052907,0,71.68696,0.06715343,0.002328396,13.12506,0.3691732,1,7.416983
32.015,3.106856,0,0,3.500458,3.448242,-0.3973236,45,47,-0.01398775,5.714597,3.106856,0,1083.086,0,-0.04050111,0.2210294,0.765178,-2.178757,-35.83966,-33.4661,-0.04784393,-18.07623,37.64706,0.98,902,21,22,0,14.90196,14.90196,0,11.38265,-0.02,0,0,343.4,40.27431,5.457626,93,78,4543,0.97,1.88124,-0.00390625,1.966152,-0.00390625,0,0,0,0,0,0,0,0,0,0,0,0,13.34,0,0,0,0,0,0,0,0,0,35,34,0,0,0,0,0,0,0,0,0,0,0,0,0,0,0,0,0,0,0,0,0,0,0,0,0,0,0,0,0,0,0,0,0,0,0,0,0,0,0,0,0,0,0,0,0,0,0,0,0,0,0,0,0,0,0,13.3,0.286501,0,27.27798,0,0,0,0,0,0
33.015,3.106856,0,0,10.17372,8.137985,-8.594406,45,47,-0.01398775,5.714597,3.106856,0,1083.086,0,0.2252698,-0.005367858,0.3245564,1.743667,-37.29101,-35.77316,4.298454,-15.31554,37.64706,0.98,902,21,22,0,14.90196,14.90196,0,11.38265,-0.02,0,0,343.4,40.27431,5.457626,93,78,4543,0.97,1.88124,-0.00390625,1.966152,-0.00390625,0,0,0,0,0,0,0,0,0,0,0,0,13.34,0,0,0,0,0,0,0,0,0,35,34,0,0,0,0,0,0,0,0,0,0,0,0,0,0,0,0,0,0,0,0,0,0,0,0,0,0,0,0,0,0,0,0,0,0,0,0,0,0,0,0,0,0,0,0,0,0,0,0,0,0,0,0,0,0,0,13.3,0.286501,0,27.27798,0,0,0,0,0,0
34.015,0,0.1223106,27.55184,-6.853928,-5.417007,0.6534729,45,47,-0.3141807,1.453086,3.106856,0.0002872121,0,0.09136843,0.6055054,0.3930039,-0.8814909,1.798906,-36.346,-33.85021,2.872431,-17.63869,0,0.36,254,21,22,0,14.90196,14.90196,0.09589252,1.173459,-0.61,0.3687314,0,343.4,0,5.457683,93,78,4543,0.97,15.9903,-0.00390625,15.9903,-0.00390625,0,0,0,0,0,0,0,0,0,0,0,0,13.34,0,0,0,0,0,0,0,0,0,35,34,0,0,0,0,0,0,0,0,0,0,0,0,0,0,0,0,0,0,0,0,0,0,0,0,0,0,0,0,0,0,0,0,0,0,0,0,0,0,0,0,0,0,0,0,0,0,0,0,0,0,0,0,0,0,0,13.3,0.1639976,0,231.8593,0,2.821336E-05,0,0.08532173,1,4E-06
35.015,0,0,27.55184,2.639328,-32.34439,10.98105,45,47,-0.2202324,0,3.106856,0.0002872121,0,0,2.941311,-0.2412465,-0.4197165,17.71343,-40.76152,-34.83728,22.33566,-15.09888,100,0.95,1051,21,22,0,30.98039,31.76471,1.506316,12.81321,-0.02,0,0,343.6,0,5.457683,93,78,4543,0.97,1.077016,-0.00390625,1.074088,-0.00390625,0,0,0,0,0,0,0,0,0,0,0,0,13.34,0,0,0,0,0,0,0,0,0,35,34,0,0,0,0,0,0,0,0,0,0,0,0,0,0,0,0,0,0,0,0,0,0,0,0,0,0,0,0,0,0,0,0,0,0,0,0,0,0,0,0,0,0,0,0,0,0,0,0,0,0,0,0,0,0,0,13.3,0.1177615,0,15.61673,0,2.821336E-05,0,0.1154534,1,1.8079
36.015,0,0,27.55184,-50.72623,34.17346,26.7926,45,47,-0.2202324,0,3.106856,0.0002872121,0,0,-1.096338,-0.1916844,0.2538636,6.065932,-41.74248,-39.55046,15.0745,-17.17812,100,0.95,1051,21,22,0,30.98039,31.76471,1.506316,12.81321,-0.02,0,0,343.6,0,5.457683,93,78,4543,0.97,1.077016,-0.00390625,1.074088,-0.00390625,0,0,0,0,0,0,0,0,0,0,0,0,13.34,0,0,0,0,0,0,0,0,0,35,34,0,0,0,0,0,0,0,0,0,0,0,0,0,0,0,0,0,0,0,0,0,0,0,0,0,0,0,0,0,0,0,0,0,0,0,0,0,0,0,0,0,0,0,0,0,0,0,0,0,0,0,0,0,0,0,13.3,0.1177615,0,15.61673,0,2.821336E-05,0,0.1154534,1,1.8079
37.015,3.106856,5.192346,27.55883,-14.28546,-1.691299,42.51785,45,47,0.3872866,10.08263,3.106856,0.007273279,2792.725,3.878785,-0.913602,-0.125818,0.6840883,10.64568,-42.53848,-40.25229,21.3342,-16.05107,83.52941,1.1,1554,21,22,0,37.2549,37.64706,1.315283,21.93691,0.13,15.65344,2920.504,343.6,103.8468,5.458994,93,78,4543,0.97,1.320528,-0.00390625,1.339072,-0.00390625,0,0,0,0,0,0,0,0,0,0,0,0,13.34,0,0,0,0,0,0,0,0,0,35,34,0,0,0,0,0,0,0,0,0,0,0,0,0,0,0,0,0,0,0,0,0,0,0,0,0,0,0,0,0,0,0,0,0,0,0,0,0,0,0,0,0,0,0,0,0,0,0,0,0,0,0,0,0,0,0,13.3,0.1475042,0,19.14766,0.002490419,0.0007144675,108.5982,0.1441851,1,3.531795
38.015,3.106856,5.192346,27.55883,-6.411621,31.18582,17.26157,45,47,0.3872866,10.08263,3.106856,0.007273279,2792.725,3.878785,-0.8415135,0.7357621,0.4235906,5.676336,-42.35001,-33.03261,26.02421,-28.46416,83.52941,1.1,1554,21,22,0,37.2549,37.64706,1.315283,21.93691,0.13,15.65344,2920.504,343.6,103.8468,5.458994,93,78,4543,0.97,1.320528,-0.00390625,1.339072,-0.00390625,0,0,0,0,0,0,0,0,0,0,0,0,13.34,0,0,0,0,0,0,0,0,0,35,34,0,0,0,0,0,0,0,0,0,0,0,0,0,0,0,0,0,0,0,0,0,0,0,0,0,0,0,0,0,0,0,0,0,0,0,0,0,0,0,0,0,0,0,0,0,0,0,0,0,0,0,0,0,0,0,13.3,0.1475042,0,19.14766,0.002490419,0.0007144675,108.5982,0.1441851,1,3.531795
39.015,8.699197,5.09259,27.56544,31.37634,38.56735,-14.4496,45,47,1.10615,9.430731,8.699197,0.01388649,978.2397,3.804265,-2.917122,0.6957327,-0.5347916,-4.07788,-36.80849,-26.27053,18.7177,-37.94083,65.88235,1.23,1629.5,35,22,0,40,40.39216,1.044495,25.7212,0.26,15.3527,1500.814,343.7,36.37561,5.460107,93,78,4543,0.97,1.259528,-0.00390625,1.238544,-0.00390625,0,0,0,0,0,0,0,0,0,0,0,0,13.34,0,0,0,0,0,0,0,0,0,35,34,0,0,0,0,0,0,0,0,0,0,0,0,0,0,0,0,0,0,0,0,0,0,0,0,0,0,0,0,0,0,0,0,0,0,0,0,0,0,0,0,0,0,0,0,0,0,0,0,0,0,0,0,0,0,0,13.3,0.2514252,0,18.26316,0.009252638,0.001364095,55.80743,0.1794837,1,5.649714
40.015,8.699197,5.09259,27.56544,12.65933,25.70485,-21.14465,45,47,1.10615,9.430731,8.699197,0.01388649,978.2397,3.804265,2.758624,-0.5648102,1.199128,8.743201,-42.55334,-27.55396,35.3692,-31.26613,65.88235,1.23,1629.5,35,22,0,40,40.39216,1.044495,25.7212,0.26,15.3527,1500.814,343.8,36.37561,5.460107,93,78,4543,0.97,1.259528,-0.00390625,1.238544,-0.00390625,0,0,0,0,0,0,0,0,0,0,0,0,13.34,0,0,0,0,0,0,0,0,0,35,34,0,0,0,0,0,0,0,0,0,0,0,0,0,0,0,0,0,0,0,0,0,0,0,0,0,0,0,0,0,0,0,0,0,0,0,0,0,0,0,0,0,0,0,0,0,0,0,0,0,0,0,0,0,0,0,13.3,0.2514252,0,18.26316,0.009252638,0.001364095,55.80743,0.1794837,1,5.649714
41.015,13.04879,4.354146,27.57225,37.46764,35.57085,-24.28299,45,47,1.180701,8.133119,13.04879,0.02069924,557.5944,3.252634,3.46054,-1.348802,1.468666,6.914292,-42.67501,-26.07378,35.17875,-32.66095,85.4902,1.33,1615.5,35,22,0,43.52941,44.31372,1.131178,26.32067,0.36,13.1265,961.3029,343.9,20.73402,5.4611,93,78,4543,0.97,1.353712,-0.00390625,1.432768,-0.00390625,0,0,0,0,0,0,0,0,0,0,0,0,13.34,0,0,0,0,0,0,0,0,0,35,34,0,0,0,0,0,0,0,0,0,0,0,0,0,0,0,0,0,0,0,0,0,0,0,0,0,0,0,0,0,0,0,0,0,0,0,0,0,0,0,0,0,0,0,0,0,0,0,0,0,0,0,0,0,0,0,13.3,0.2799354,0,19.62882,0.02153248,0.002033324,35.74582,0.2086249,1,5.649714
42.015,13.04879,4.354146,27.57225,42.62994,23.95979,-14.63599,45,47,1.180701,8.133119,13.04879,0.02069924,557.5944,3.252634,-1.451266,-0.0003798062,0.5060377,-3.880184,-34.84262,-30.31199,19.06388,-39.24208,85.4902,1.33,1615.5,35,22,0,43.52941,44.31372,1.131178,26.32067,0.36,13.1265,961.3029,344,20.73402,5.4611,93,78,4543,0.97,1.353712,-0.00390625,1.432768,-0.00390625,0,0,0,0,0,0,0,0,0,0,0,0,13.34,0,0,0,0,0,0,0,0,0,35,34,0,0,0,0,0,0,0,0,0,0,0,0,0,0,0,0,0,0,0,0,0,0,0,0,0,0,0,0,0,0,0,0,0,0,0,0,0,0,0,0,0,0,0,0,0,0,0,0,0,0,0,0,0,0,0,13.3,0.2799354,0,19.62882,0.02153248,0.002033324,35.74582,0.2086249,1,5.649714
43.015,18.01976,11.53025,27.58751,1.856903,-3.897431,-1.984283,45,47,1.088978,15.85131,18.01976,0.03595911,1069.24,8.613326,0.1949151,0.5107766,-0.08005176,-1.222805,-37.22823,-29.16595,23.07176,-38.03482,66.66666,1.78,2195,35,22,0,46.66667,47.05882,2.328451,47.86223,0.81,34.76041,1004.316,344,39.75946,5.463706,93,78,4543,0.97,2.378512,-0.00390625,1.969568,-0.00390625,0,0,0,0,0,0,0,0,0,0,0,0,13.34,0,0,0,0,0,0,0,0,0,35,34,0,0,0,0,0,0,0,0,0,0,0,0,0,0,0,0,0,0,0,0,0,0,0,0,0,0,0,0,0,0,0,0,0,0,0,0,0,0,0,0,0,0,0,0,0,0,0,0,0,0,0,0,0,0,0,12.9,0.4053635,0,34.48842,0.03580459,0.003532329,37.34525,0.2387965,1,5.649714
44.015,18.01976,11.53025,27.58751,-13.04498,1.616791,4.006866,45,47,1.088978,15.85131,18.01976,0.03595911,1069.24,8.613326,-0.5817959,0.6132235,1.237056,-1.142555,-38.13319,-29.97011,23.34265,-37.58148,66.66666,1.78,2195,35,22,0,46.66667,47.05882,2.328451,47.86223,0.81,34.76041,1004.316,343.9,39.75946,5.463706,93,78,4543,0.97,2.378512,-0.00390625,1.969568,-0.00390625,0,0,0,0,0,0,0,0,0,0,0,0,13.34,0,0,0,0,0,0,0,0,0,35,34,0,0,0,0,0,0,0,0,0,0,0,0,0,0,0,0,0,0,0,0,0,0,0,0,0,0,0,0,0,0,0,0,0,0,0,0,0,0,0,0,0,0,0,0,0,0,0,0,0,0,0,0,0,0,0,12.9,0.4053635,0,34.48842,0.03580459,0.003532329,37.34525,0.2387965,1,5.649714
45.015,22.99073,5.82651,27.59538,-19.95041,-22.14165,9.034454,45,47,1.245383,11.12436,22.99073,0.04382904,423.4883,4.352519,1.104423,-0.5763642,2.254823,3.970255,-40.96259,-33.41598,28.61218,-34.72731,81.56863,1.55,1580.5,35,22,0,46.27451,47.05882,1.110496,30.0099,0.58,17.56526,807.5232,344,15.74731,5.464727,93,78,4543,0.97,1.248304,-0.00390625,1.267336,-0.00390625,0,0,0,0,0,0,0,0,0,0,0,0,13.34,0,0,0,0,0,0,0,0,0,35,34,0,0,0,0,0,0,0,0,0,0,0,0,0,0,0,0,0,0,0,0,0,0,0,0,0,0,0,0,0,0,0,0,0,0,0,0,0,0,0,0,0,0,0,0,0,0,0,0,0,0,0,0,0,0,0,12.9,0.5290121,0,18.10041,0.0542759,0.004305407,30.02756,0.2682726,1,5.649714
46.015,22.99073,5.82651,27.59538,21.332,15.80893,-16.42949,45,47,1.245383,11.12436,22.99073,0.04382904,423.4883,4.352519,-0.3481178,-0.07490361,-1.486039,0.06767423,-38.3704,-32.4216,23.79018,-37.65102,81.56863,1.55,1580.5,35,22,0,46.27451,47.05882,1.110496,30.0099,0.58,17.56526,807.5232,344.2,15.74731,5.464727,93,78,4543,0.97,1.248304,-0.00390625,1.267336,-0.00390625,0,0,0,0,0,0,0,0,0,0,0,0,13.34,0,0,0,0,0,0,0,0,0,35,34,0,0,0,0,0,0,0,0,0,0,0,0,0,0,0,0,0,0,0,0,0,0,0,0,0,0,0,0,0,0,0,0,0,0,0,0,0,0,0,0,0,0,0,0,0,0,0,0,0,0,0,0,0,0,0,12.9,0.5290121,0,18.10041,0.0542759,0.004305407,30.02756,0.2682726,1,5.649714
47.015,27.34033,7.346165,27.60505,4.451996,-11.82422,11.7851,45,47,1.1668,12.19684,27.34033,0.05349484,448.9961,5.487731,1.126127,-0.366792,1.87369,2.925482,-41.06009,-33.60587,27.84508,-34.22028,74.11765,1.51,1817.5,26,22,0,40.39216,40.78431,1.589259,33.61938,0.54,22.14658,704.4575,344.3,16.69582,5.466011,93,78,4543,0.97,1.614792,-0.00390625,1.629432,-0.00390625,0,0,0,0,0,0,0,0,0,0,0,0,13.34,0,0,0,0,0,0,0,0,0,35,34,0,0,0,0,0,0,0,0,0,0,0,0,0,0,0,0,0,0,0,0,0,0,0,0,0,0,0,0,0,0,0,0,0,0,0,0,0,0,0,0,0,0,0,0,0,0,0,0,0,0,0,0,0,0,0,12.9,0.6255417,0,23.41448,0.07593764,0.005254896,26.19509,0.3032973,1,5.649714
48.015,29.20445,4.061042,27.61143,-7.71608,0.08583069,-10.42865,45,47,0.7475015,9.14521,29.20445,0.05987803,232.3669,3.033679,0.119432,-0.9685294,-1.590312,-0.02380933,-38.154,-33.03168,24.12953,-37.09598,61.96078,1.27,1340,26,22,0,40.39216,40.78431,0.8162437,21.47435,0.3,12.24288,579.7579,344.4,8.640509,5.466479,93,78,4543,0.97,1.271728,-0.00390625,1.261968,-0.00390625,0,0,0,0,0,0,0,0,0,0,0,0,13.34,0,0,0,0,0,0,0,0,0,35,34,0,0,0,0,0,0,0,0,0,0,0,0,0,0,0,0,0,0,0,0,0,0,0,0,0,0,0,0,0,0,0,0,0,0,0,0,0,0,0,0,0,0,0,0,0,0,0,0,0,0,0,0,0,0,0,12.9,0.6493384,0,18.44006,0.1032811,0.005881928,21.55816,0.3323473,1,5.649714
49.015,29.20445,4.061042,27.61143,12.42271,-1.490845,1.340363,45,47,0.7475015,9.14521,29.20445,0.05987803,232.3669,3.033679,0.342762,-0.6810643,0.8498349,0.3994261,-40.23722,-33.68793,25.17015,-35.02533,61.96078,1.27,1340,26,22,0,40.39216,40.78431,0.8162437,21.47435,0.3,12.24288,579.7579,344.4,8.640509,5.466479,93,78,4543,0.97,1.271728,-0.00390625,1.261968,-0.00390625,0,0,0,0,0,0,0,0,0,0,0,0,13.34,0,0,0,0,0,0,0,0,0,35,34,0,0,0,0,0,0,0,0,0,0,0,0,0,0,0,0,0,0,0,0,0,0,0,0,0,0,0,0,0,0,0,0,0,0,0,0,0,0,0,0,0,0,0,0,0,0,0,0,0,0,0,0,0,0,0,12.9,0.6493384,0,18.44006,0.1032811,0.005881928,21.55816,0.3323473,1,5.649714
50.015,29.20445,4.061042,27.61143,11.32132,11.18732,-5.914597,45,47,0.7475015,9.14521,29.20445,0.05987803,232.3669,3.033679,-0.2355514,-1.175745,0.4163377,1.495982,-40.30906,-34.25642,26.37583,-34.95424,61.96078,1.27,1340,26,22,0,40.39216,40.78431,0.8162437,21.47435,0.3,12.24288,579.7579,344.4,8.640509,5.466479,93,78,4543,0.97,1.271728,-0.00390625,1.261968,-0.00390625,0,0,0,0,0,0,0,0,0,0,0,0,13.34,0,0,0,0,0,0,0,0,0,35,34,0,0,0,0,0,0,0,0,0,0,0,0,0,0,0,0,0,0,0,0,0,0,0,0,0,0,0,0,0,0,0,0,0,0,0,0,0,0,0,0,0,0,0,0,0,0,0,0,0,0,0,0,0,0,0,12.9,0.6493384,0,18.44006,0.1032811,0.005881928,21.55816,0.3323473,1,5.649714
51.015,30.44719,3.353234,27.6158,1.908142,5.721329,-10.56946,45,47,0.3584303,7.300651,30.44719,0.06424361,184.0358,2.504932,-0.3132808,0.483084,-0.6231338,-1.874758,-38.4934,-31.66087,21.75743,-36.13646,84.31373,1.24,1386,26,22,0,39.60784,39.60784,1.093504,21.68685,0.27,10.10904,505.9046,344.5,6.843329,5.466653,112,78,4543,0.97,1.519632,1.351563,1.627968,-0.00390625,0,0,0,0,0,0,0,0,0,0,0,0,12.84,0,0,0,0,0,0,0,0,0,55,35,0,0,0,0,0,0,0,0,0,0,0,0,0,0,0,0,0,0,0,0,0,0,0,0,0,0,0,0,0,0,0,0,0,0,0,0,0,0,0,0,0,0,0,0,0,0,0,0,0,0,0,0,0,0,0,12.9,0.7000253,0,22.03466,0.1269876,0.006310768,18.81194,0.3702062,1,5.649714
52.015,31.68993,3.390744,27.62158,2.591339,1.677887,1.055145,45,47,0.2811631,9.172473,31.68993,0.07002591,178.7967,2.532953,0.05442328,0.7291023,0.7746543,-3.332544,-38.29993,-30.3978,21.40424,-37.34589,84.70588,1.13,1115.5,26,22,0,35.29412,35.68628,0.7856189,15.90595,0.16,10.22212,439.5054,344.5,6.648513,5.466857,112,78,4543,0.97,1.22732,0.796875,1.230736,-0.00390625,0,0,0,0,0,0,0,0,0,0,0,0,12.84,0,0,0,0,0,0,0,0,0,55,35,0,0,0,0,0,0,0,0,0,0,0,0,0,0,0,0,0,0,0,0,0,0,0,0,0,0,0,0,0,0,0,0,0,0,0,0,0,0,0,0,0,0,0,0,0,0,0,0,0,0,0,0,0,0,0,12.9,0.7684072,0,17.79614,0.1593289,0.006878773,16.34291,0.3993247,1,5.649714
53.015,31.68993,3.390744,27.62158,10.3763,-2.258392,6.144943,45,47,0.2811631,9.172473,31.68993,0.07002591,178.7967,2.532953,-0.5344057,0.3665902,2.083701,-2.938491,-37.83318,-30.75445,21.14843,-37.45067,84.70588,1.13,1115.5,26,22,0,35.29412,35.68628,0.7856189,15.90595,0.16,10.22212,439.5054,344.5,6.648513,5.466857,112,78,4543,0.97,1.22732,0.796875,1.230736,-0.00390625,0,0,0,0,0,0,0,0,0,0,0,0,12.84,0,0,0,0,0,0,0,0,0,55,35,0,0,0,0,0,0,0,0,0,0,0,0,0,0,0,0,0,0,0,0,0,0,0,0,0,0,0,0,0,0,0,0,0,0,0,0,0,0,0,0,0,0,0,0,0,0,0,0,0,0,0,0,0,0,0,12.9,0.7684072,0,17.79614,0.1593289,0.006878773,16.34291,0.3993247,1,5.649714
54.015,31.68993,3.390744,27.62158,4.069519,1.628296,2.05101,45,47,0.2811631,9.172473,31.68993,0.07002591,178.7967,2.532953,-0.3251411,0.3237762,0.5223069,-3.340765,-36.7125,-30.42673,20.34591,-37.72617,84.70588,1.13,1115.5,26,22,0,35.29412,35.68628,0.7856189,15.90595,0.16,10.22212,439.5054,344.5,6.648513,5.466857,112,78,4543,0.97,1.22732,0.796875,1.230736,-0.00390625,0,0,0,0,0,0,0,0,0,0,0,0,12.84,0,0,0,0,0,0,0,0,0,55,35,0,0,0,0,0,0,0,0,0,0,0,0,0,0,0,0,0,0,0,0,0,0,0,0,0,0,0,0,0,0,0,0,0,0,0,0,0,0,0,0,0,0,0,0,0,0,0,0,0,0,0,0,0,0,0,12.9,0.7684072,0,17.79614,0.1593289,0.006878773,16.34291,0.3993247,1,5.649714
55.015,32.93267,3.436266,27.62602,-4.776871,-1.858139,4.054703,45,47,0.2812358,9.135913,32.93267,0.07446641,174.3595,2.566959,-0.126697,0.2864139,-0.2086326,-6.652474,-36.25946,-28.2437,19.12069,-38.06175,86.66666,1.12,1135,21,22,0,34.90196,35.29412,0.9846504,16.04078,0.15,10.35936,402.6104,344.4,6.483516,5.46699,112,78,4543,0.97,1.256112,0.7265625,1.229272,-0.00390625,0,0,0,0,0,0,0,0,0,0,0,0,12.84,0,0,0,0,0,0,0,0,0,55,35,0,0,0,0,0,0,0,0,0,0,0,0,0,0,0,0,0,0,0,0,0,0,0,0,0,0,0,0,0,0,0,0,0,0,0,0,0,0,0,0,0,0,0,0,0,0,0,0,0,0,0,0,0,0,0,12.9,0.800319,0,18.21362,0.184959,0.007314972,14.97098,0.4346699,1,5.649714
56.015,33.55404,3.381366,27.6314,-2.156052,9.266083,-10.66724,45,47,0.2247759,8.773514,33.55404,0.07984734,168.3965,2.525948,0.3514528,-0.8926756,-0.4542355,-3.761944,-37.41906,-30.0472,21.35102,-37.91429,82.35294,1.11,1163,21,22,0,33.72549,33.72549,0.9151716,16.56664,0.14,10.19385,368.1235,344.5,6.261785,5.467125,112,78,4543,0.97,1.308816,0.8867188,1.389336,-0.00390625,0,0,0,0,0,0,0,0,0,0,0,0,12.84,0,0,0,0,0,0,0,0,0,55,35,0,0,0,0,0,0,0,0,0,0,0,0,0,0,0,0,0,0,0,0,0,0,0,0,0,0,0,0,0,0,0,0,0,0,0,0,0,0,0,0,0,0,0,0,0,0,0,0,0,0,0,0,0,0,0,12.9,0.7359051,0,18.97783,0.2169036,0.007843549,13.68859,0.4637457,1,5.649714
57.015,33.55404,3.381366,27.6314,21.3083,11.4745,-3.093155,45,47,0.2247759,8.773514,33.55404,0.07984734,168.3965,2.525948,-1.640841,0.2220205,0.2793733,-6.167178,-34.96655,-26.76079,14.35474,-38.41501,82.35294,1.11,1163,21,22,0,33.72549,33.72549,0.9151716,16.56664,0.14,10.19385,368.1235,344.5,6.261785,5.467125,112,78,4543,0.97,1.308816,0.8867188,1.389336,-0.00390625,0,0,0,0,0,0,0,0,0,0,0,0,12.84,0,0,0,0,0,0,0,0,0,55,35,0,0,0,0,0,0,0,0,0,0,0,0,0,0,0,0,0,0,0,0,0,0,0,0,0,0,0,0,0,0,0,0,0,0,0,0,0,0,0,0,0,0,0,0,0,0,0,0,0,0,0,0,0,0,0,12.9,0.7359051,0,18.97783,0.2169036,0.007843549,13.68859,0.4637457,1,5.649714
58.015,34.17542,2.824989,27.6351,8.320465,-1.756042,-7.405853,45,47,0.1447561,7.31104,34.17542,0.08354056,138.1302,2.110323,0.4385085,0.5215957,-0.6123624,-4.374574,-35.72912,-28.89236,19.37933,-38.13031,60.39216,1.07,1166,21,22,0,26.66667,27.05882,0.7852648,16.01084,0.1,8.516532,342.968,344.7,5.136339,5.46708,112,78,4543,0.97,1.642608,1.429688,1.680184,-0.00390625,0,0,0,0,0,0,0,0,0,0,0,0,12.84,0,0,0,0,0,0,0,0,0,55,35,0,0,0,0,0,0,0,0,0,0,0,0,0,0,0,0,0,0,0,0,0,0,0,0,0,0,0,0,0,0,0,0,0,0,0,0,0,0,0,0,0,0,0,0,0,0,0,0,0,0,0,0,0,0,0,12.9,0.6080402,0,23.81782,0.2435812,0.008206341,12.75318,0.4938403,1,5.649714
59.015,34.17542,2.824989,27.6351,-15.30205,-11.74414,4.855698,45,47,0.1447561,7.31104,34.17542,0.08354056,138.1302,2.110323,0.5204065,0.6553624,0.5779603,-1.528892,-37.97858,-31.94164,22.40157,-36.78539,60.39216,1.07,1166,21,22,0,26.66667,27.05882,0.7852648,16.01084,0.1,8.516532,342.968,344.6,5.136339,5.46708,112,78,4543,0.97,1.642608,1.429688,1.680184,-0.00390625,0,0,0,0,0,0,0,0,0,0,0,0,12.84,0,0,0,0,0,0,0,0,0,55,35,0,0,0,0,0,0,0,0,0,0,0,0,0,0,0,0,0,0,0,0,0,0,0,0,0,0,0,0,0,0,0,0,0,0,0,0,0,0,0,0,0,0,0,0,0,0,0,0,0,0,0,0,0,0,0,12.9,0.6080402,0,23.81782,0.2435812,0.008206341,12.75318,0.4938403,1,5.649714
60.015,34.17542,1.928481,27.63768,7.477371,3.473434,-4.633987,45,47,0.07953916,5.014541,34.17542,0.08612698,94.29469,1.440613,-1.000545,0.1909767,-0.02873155,-4.059761,-36.50514,-30.78888,19.84179,-37.72456,58.82353,1.02,1160.5,21,22,0,27.84314,29.80392,0.7291124,15.19067,0.05,5.813817,317.7483,344.8,3.506326,5.466793,112,78,4543,0.97,1.434232,1.097656,1.452776,-0.00390625,0,0,0,0,0,0,0,0,0,0,0,0,12.84,0,0,0,0,0,0,0,0,0,55,35,0,0,0,0,0,0,0,0,0,0,0,0,0,0,0,0,0,0,0,0,0,0,0,0,0,0,0,0,0,0,0,0,0,0,0,0,0,0,0,0,0,0,0,0,0,0,0,0,0,0,0,0,0,0,0,12.9,0.5156726,0,20.79636,0.2710541,0.00846041,11.8154,0.5228892,1,5.649714
61.015,34.17542,1.928481,27.63768,8.775757,2.433533,-1.261826,45,47,0.07953916,5.014541,34.17542,0.08612698,94.29469,1.440613,-0.3112452,0.5713933,-0.7896185,-3.547606,-37.11654,-31.85222,20.02226,-37.73845,58.82353,1.02,1160.5,21,22,0,27.84314,29.80392,0.7291124,15.19067,0.05,5.813817,317.7483,344.7,3.506326,5.466793,112,78,4543,0.97,1.434232,1.097656,1.452776,-0.00390625,0,0,0,0,0,0,0,0,0,0,0,0,12.84,0,0,0,0,0,0,0,0,0,55,35,0,0,0,0,0,0,0,0,0,0,0,0,0,0,0,0,0,0,0,0,0,0,0,0,0,0,0,0,0,0,0,0,0,0,0,0,0,0,0,0,0,0,0,0,0,0,0,0,0,0,0,0,0,0,0,12.9,0.5156726,0,20.79636,0.2710541,0.00846041,11.8154,0.5228892,1,5.649714
62.015,34.17542,1.983415,27.64025,5.517075,1.642883,-7.383637,45,47,-1.110223E-16,5.159606,34.17542,0.08870061,96.98074,1.48165,0.6129143,1.106332,0.1299553,-1.710424,-37.85083,-32.82822,21.60248,-36.76917,66.27451,1.04,1160,22,22,0,29.80392,29.80392,0.7735272,15.48186,0.07,5.979428,298.0381,344.7,3.606206,5.466529,112,78,4543,0.97,1.504016,1.226563,1.553304,-0.00390625,0,0,0,0,0,0,0,0,0,0,0,0,12.84,0,0,0,0,0,0,0,0,0,55,35,0,0,0,0,0,0,0,0,0,0,0,0,0,0,0,0,0,0,0,0,0,0,0,0,0,0,0,0,0,0,0,0,0,0,0,0,0,0,0,0,0,0,0,0,0,0,0,0,0,0,0,0,0,0,0,12.9,0.3902445,0,21.80823,0.2976149,0.008713223,11.08248,0.5577459,1,5.649714
63.015,34.17542,1.983415,27.64025,16.28664,4.172409,-2.94574,45,47,-1.110223E-16,5.159606,34.17542,0.08870061,96.98074,1.48165,-0.08659922,-0.1984365,0.2946295,-2.350734,-38.1402,-33.41105,21.64736,-36.61658,66.27451,1.04,1160,22,22,0,29.80392,29.80392,0.7735272,15.48186,0.07,5.979428,298.0381,344.6,3.606206,5.466529,112,78,4543,0.97,1.504016,1.226563,1.553304,-0.00390625,0,0,0,0,0,0,0,0,0,0,0,0,12.84,0,0,0,0,0,0,0,0,0,55,35,0,0,0,0,0,0,0,0,0,0,0,0,0,0,0,0,0,0,0,0,0,0,0,0,0,0,0,0,0,0,0,0,0,0,0,0,0,0,0,0,0,0,0,0,0,0,0,0,0,0,0,0,0,0,0,12.9,0.3902445,0,21.80823,0.2976149,0.008713223,11.08248,0.5577459,1,5.649714
64.015,34.17542,2.391771,27.64402,-17.89711,-20.02888,15.59657,45,47,-1.110223E-16,6.171353,34.17542,0.09246111,116.9477,1.7867,0.8901795,-0.8124564,0.703272,5.844139,-46.35796,-36.53897,29.05377,-26.03818,63.13726,1.06,1169.5,22,22,0,29.80392,29.80392,0.8310885,15.85491,0.09,7.210505,280.5237,344.6,4.348671,5.466343,112,78,4543,0.97,1.606496,1.382813,1.63968,-0.00390625,0,0,0,0,0,0,0,0,0,0,0,0,12.84,0,0,0,0,0,0,0,0,0,55,35,0,0,0,0,0,0,0,0,0,0,0,0,0,0,0,0,0,0,0,0,0,0,0,0,0,0,0,0,0,0,0,0,0,0,0,0,0,0,0,0,0,0,0,0,0,0,0,0,0,0,0,0,0,0,0,12.9,0.2665959,0,23.29419,0.3296017,0.009082624,10.43121,0.5875068,1,5.649714
65.015,34.17542,2.391771,27.64402,-5.461487,-11.35892,3.534546,45,47,-1.110223E-16,6.171353,34.17542,0.09246111,116.9477,1.7867,-0.5955558,0.3820246,-1.056151,-1.929521,-41.72732,-31.56982,24.5753,-33.91882,63.13726,1.06,1169.5,22,22,0,29.80392,29.80392,0.8310885,15.85491,0.09,7.210505,280.5237,344.6,4.348671,5.466343,112,78,4543,0.97,1.606496,1.382813,1.63968,-0.00390625,0,0,0,0,0,0,0,0,0,0,0,0,12.84,0,0,0,0,0,0,0,0,0,55,35,0,0,0,0,0,0,0,0,0,0,0,0,0,0,0,0,0,0,0,0,0,0,0,0,0,0,0,0,0,0,0,0,0,0,0,0,0,0,0,0,0,0,0,0,0,0,0,0,0,0,0,0,0,0,0,12.9,0.2665959,0,23.29419,0.3296017,0.009082624,10.43121,0.5875068,1,5.649714
66.015,34.79679,2.308119,27.64706,-1.824814,2.196167,-6.092682,45,47,0.07834025,5.93521,34.79679,0.09550664,110.8421,1.72421,-0.4882149,-0.5627025,-0.6612494,-1.860427,-40.12693,-31.54421,24.81438,-33.85175,61.17647,1.06,1173.5,22,22,0,29.80392,29.80392,0.8350345,15.90914,0.09,6.958317,267.3907,344.6,4.121637,5.466144,112,78,4543,0.97,1.627968,1.410156,1.661152,-0.00390625,0,0,0,0,0,0,0,0,0,0,0,0,12.84,0,0,0,0,0,0,0,0,0,55,35,0,0,0,0,0,0,0,0,0,0,0,0,0,0,0,0,0,0,0,0,0,0,0,0,0,0,0,0,0,0,0,0,0,0,0,0,0,0,0,0,0,0,0,0,0,0,0,0,0,0,0,0,0,0,0,12.9,0.1725525,0,23.60554,0.3571801,0.009381792,9.942862,0.6175851,1,5.649714
67.015,34.79679,2.24181,27.65013,6.061798,-0.9195251,-1.37944,45,47,0.07834025,5.781944,34.79679,0.09857777,107.6578,1.674676,0.644728,-0.08919962,0.211612,-0.978941,-41.37875,-32.07439,24.59411,-32.58704,60.78431,1.06,1170,22,22,0,29.80392,29.80392,0.834187,15.86169,0.09,6.758414,255.6465,344.6,4.003229,5.465925,112,78,4543,0.97,1.635776,1.425781,1.665056,-0.00390625,0,0,0,0,0,0,0,0,0,0,0,0,12.84,0,0,0,0,0,0,0,0,0,55,35,0,0,0,0,0,0,0,0,0,0,0,0,0,0,0,0,0,0,0,0,0,0,0,0,0,0,0,0,0,0,0,0,0,0,0,0,0,0,0,0,0,0,0,0,0,0,0,0,0,0,0,0,0,0,0,12.9,0.1327637,0,23.71875,0.3856018,0.009683474,9.506157,0.6466731,1,5.649714
68.015,34.79679,2.24181,27.65013,17.49539,9.572296,-3.588943,45,47,0.07834025,5.781944,34.79679,0.09857777,107.6578,1.674676,0.5247142,0.2515033,1.04476,-1.711325,-41.54191,-32.10908,24.36093,-33.47435,60.78431,1.06,1170,22,22,0,29.80392,29.80392,0.834187,15.86169,0.09,6.758414,255.6465,344.7,4.003229,5.465925,112,78,4543,0.97,1.635776,1.425781,1.665056,-0.00390625,0,0,0,0,0,0,0,0,0,0,0,0,12.84,0,0,0,0,0,0,0,0,0,55,35,0,0,0,0,0,0,0,0,0,0,0,0,0,0,0,0,0,0,0,0,0,0,0,0,0,0,0,0,0,0,0,0,0,0,0,0,0,0,0,0,0,0,0,0,0,0,0,0,0,0,0,0,0,0,0,12.9,0.1327637,0,23.71875,0.3856018,0.009683474,9.506157,0.6466731,1,5.649714
69.015,34.79679,2.24181,27.65013,-10.09508,-3.844589,-0.2639465,45,47,0.07834025,5.781944,34.79679,0.09857777,107.6578,1.674676,-0.3151431,1.040184,-0.8616759,-4.232477,-39.69948,-30.29231,21.70785,-35.63712,60.78431,1.06,1170,22,22,0,29.80392,29.80392,0.834187,15.86169,0.09,6.758414,255.6465,344.7,4.003229,5.465925,112,78,4543,0.97,1.635776,1.425781,1.665056,-0.00390625,0,0,0,0,0,0,0,0,0,0,0,0,12.84,0,0,0,0,0,0,0,0,0,55,35,0,0,0,0,0,0,0,0,0,0,0,0,0,0,0,0,0,0,0,0,0,0,0,0,0,0,0,0,0,0,0,0,0,0,0,0,0,0,0,0,0,0,0,0,0,0,0,0,0,0,0,0,0,0,0,12.9,0.1327637,0,23.71875,0.3856018,0.009683474,9.506157,0.6466731,1,5.649714
70.015,34.79679,2.238114,27.65304,2.987167,-4.002121,1.290787,51,54,-1.110223E-16,5.762561,34.79679,0.101486,107.4803,1.671915,-0.3273714,-1.016951,1.527128,-4.612807,-39.6221,-29.69249,21.77208,-35.53731,60.78431,1.06,1172,23,22,0,29.80392,29.80392,0.8406922,15.88881,0.09,6.747272,245.929,344.9,3.996629,5.465714,132,78,4543,0.97,1.652368,1.449219,1.67384,-0.00390625,0,0,0,0,0,0,0,0,0,0,0,0,12.88,0,0,0,0,0,0,0,0,0,42,38,0,0,0,0,0,0,0,0,0,0,0,0,0,0,0,0,0,0,0,0,0,0,0,0,0,0,0,0,0,0,0,0,0,0,0,0,0,0,0,0,0,0,0,0,0,0,0,0,0,0,0,0,0,0,0,12.9,0.1008664,0,23.95934,0.4126639,0.009969157,9.144812,0.6998245,1,5.649714
71.015,34.79679,2.238114,27.65304,-9.406265,-15.8558,6.498291,51,54,-1.110223E-16,5.762561,34.79679,0.101486,107.4803,1.671915,-0.857749,0.3898498,-0.1877867,-6.526229,-37.99485,-28.51928,19.44406,-36.98511,60.78431,1.06,1172,23,22,0,29.80392,29.80392,0.8406922,15.88881,0.09,6.747272,245.929,344.9,3.996629,5.465714,132,78,4543,0.97,1.652368,1.449219,1.67384,-0.00390625,0,0,0,0,0,0,0,0,0,0,0,0,12.88,0,0,0,0,0,0,0,0,0,42,38,0,0,0,0,0,0,0,0,0,0,0,0,0,0,0,0,0,0,0,0,0,0,0,0,0,0,0,0,0,0,0,0,0,0,0,0,0,0,0,0,0,0,0,0,0,0,0,0,0,0,0,0,0,0,0,12.9,0.1008664,0,23.95934,0.4126639,0.009969157,9.144812,0.6998245,1,5.649714
72.015,34.79679,2.238114,27.65836,-5.746658,2.406342,-6.130005,51,54,-1.110223E-16,5.784772,34.79679,0.1068075,107.4803,1.671915,0.911909,-1.396267,-2.089212,-5.551054,-38.75631,-29.76754,20.20583,-36.57761,57.64706,1.06,1167.5,23,22,0,28.62745,28.62745,0.842101,15.77435,0.09,6.747272,231.0973,344.9,3.996629,5.465327,132,78,4543,0.97,1.690432,1.488281,1.722152,-0.00390625,0,0,0,0,0,0,0,0,0,0,0,0,12.88,0,0,0,0,0,0,0,0,0,42,38,0,0,0,0,0,0,0,0,0,0,0,0,0,0,0,0,0,0,0,0,0,0,0,0,0,0,0,0,0,0,0,0,0,0,0,0,0,0,0,0,0,0,0,0,0,0,0,0,0,0,0,0,0,0,0,12.9,0.07653106,0,24.51126,0.4621752,0.01049189,8.5933,0.7289183,1,5.649714
73.015,34.79679,2.238114,27.65836,-28.03648,-6.86557,-11.57806,51,54,-1.110223E-16,5.784772,34.79679,0.1068075,107.4803,1.671915,0.09536759,-0.3120477,-3.314875,-5.287356,-38.12811,-30.28882,20.06767,-35.8427,57.64706,1.06,1167.5,23,22,0,28.62745,28.62745,0.842101,15.77435,0.09,6.747272,231.0973,344.9,3.996629,5.465327,132,78,4543,0.97,1.690432,1.488281,1.722152,-0.00390625,0,0,0,0,0,0,0,0,0,0,0,0,12.88,0,0,0,0,0,0,0,0,0,42,38,0,0,0,0,0,0,0,0,0,0,0,0,0,0,0,0,0,0,0,0,0,0,0,0,0,0,0,0,0,0,0,0,0,0,0,0,0,0,0,0,0,0,0,0,0,0,0,0,0,0,0,0,0,0,0,12.9,0.07653106,0,24.51126,0.4621752,0.01049189,8.5933,0.7289183,1,5.649714
74.015,34.79679,2.075354,27.66105,-1.303284,1.717194,9.197281,51,54,-1.110223E-16,5.350346,34.79679,0.1094986,99.66412,1.550331,-0.7446562,0.1347325,0.2523311,-5.628611,-38.74852,-31.03,20.15319,-36.45328,58.03922,1.06,1170.5,23,22,0,29.01961,29.01961,0.8265314,15.81489,0.09,6.256599,223.832,345,3.705987,5.465074,132,78,4543,0.97,1.701656,1.507813,1.716784,-0.00390625,0,0,0,0,0,0,0,0,0,0,0,0,12.88,0,0,0,0,0,0,0,0,0,42,38,0,0,0,0,0,0,0,0,0,0,0,0,0,0,0,0,0,0,0,0,0,0,0,0,0,0,0,0,0,0,0,0,0,0,0,0,0,0,0,0,0,0,0,0,0,0,0,0,0,0,0,0,0,0,0,12.9,0.04461927,0,24.67401,0.4892001,0.01075625,8.323142,0.7586166,1,5.649714
75.015,34.79679,2.075354,27.66105,-14.19639,-5.445511,3.276855,51,54,-1.110223E-16,5.350346,34.79679,0.1094986,99.66412,1.550331,0.1280128,0.3100002,-0.175355,-4.942702,-39.31191,-30.5008,21.17526,-36.69347,58.03922,1.06,1170.5,23,22,0,29.01961,29.01961,0.8265314,15.81489,0.09,6.256599,223.832,345.2,3.705987,5.465074,132,78,4543,0.97,1.701656,1.507813,1.716784,-0.00390625,0,0,0,0,0,0,0,0,0,0,0,0,12.88,0,0,0,0,0,0,0,0,0,42,38,0,0,0,0,0,0,0,0,0,0,0,0,0,0,0,0,0,0,0,0,0,0,0,0,0,0,0,0,0,0,0,0,0,0,0,0,0,0,0,0,0,0,0,0,0,0,0,0,0,0,0,0,0,0,0,12.9,0.04461927,0,24.67401,0.4892001,0.01075625,8.323142,0.7586166,1,5.649714
76.015,34.17542,2.07928,27.66385,7.865097,3.11322,5.52916,51,54,-0.07683796,5.3904,34.79679,0.1122893,101.6681,1.553263,-0.1304195,0.4752232,1.251626,-4.195679,-39.10607,-29.92625,21.75636,-36.58211,58.03922,1.06,1164,23,22,0,28.62745,29.01961,0.8203915,15.72707,0.09,6.268433,217.2716,345.2,3.780506,5.464823,132,78,4543,0.97,1.687992,1.496094,1.709952,-0.00390625,0,0,0,0,0,0,0,0,0,0,0,0,12.88,0,0,0,0,0,0,0,0,0,42,38,0,0,0,0,0,0,0,0,0,0,0,0,0,0,0,0,0,0,0,0,0,0,0,0,0,0,0,0,0,0,0,0,0,0,0,0,0,0,0,0,0,0,0,0,0,0,0,0,0,0,0,0,0,0,0,12.9,0.01620829,0,24.47588,0.5168155,0.01103038,8.079192,0.7879056,1,5.649714
77.015,34.17542,2.07928,27.66385,-12.06506,5.804611,-12.99196,51,54,-0.07683796,5.3904,34.79679,0.1122893,101.6681,1.553263,-0.8494444,-0.1851912,1.225332,-4.353468,-39.18191,-30.6862,20.88367,-36.84242,58.03922,1.06,1164,23,22,0,28.62745,29.01961,0.8203915,15.72707,0.09,6.268433,217.2716,345.3,3.780506,5.464823,132,78,4543,0.97,1.687992,1.496094,1.709952,-0.00390625,0,0,0,0,0,0,0,0,0,0,0,0,12.88,0,0,0,0,0,0,0,0,0,42,38,0,0,0,0,0,0,0,0,0,0,0,0,0,0,0,0,0,0,0,0,0,0,0,0,0,0,0,0,0,0,0,0,0,0,0,0,0,0,0,0,0,0,0,0,0,0,0,0,0,0,0,0,0,0,0,12.9,0.01620829,0,24.47588,0.5168155,0.01103038,8.079192,0.7879056,1,5.649714
78.015,34.17542,2.089473,27.66657,1.283813,-2.514954,11.24928,51,54,-0.07683796,5.435502,34.79679,0.1150181,102.1665,1.560877,0.1794106,1.809579,1.68348,-1.691154,-39.86949,-32.12783,24.33653,-36.02895,57.64706,1.06,1160,23,22,0,28.62745,29.01961,0.8290167,15.67302,0.09,6.299161,211.6884,345.3,3.799038,5.464592,132,78,4543,0.97,1.677256,1.484375,1.701168,-0.00390625,0,0,0,0,0,0,0,0,0,0,0,0,12.88,0,0,0,0,0,0,0,0,0,42,38,0,0,0,0,0,0,0,0,0,0,0,0,0,0,0,0,0,0,0,0,0,0,0,0,0,0,0,0,0,0,0,0,0,0,0,0,0,0,0,0,0,0,0,0,0,0,0,0,0,0,0,0,0,0,0,12.9,0.0003004558,0,24.32021,0.5433366,0.01129843,7.871584,0.8229395,1,5.649714
79.015,34.17542,2.089473,27.66657,-9.46347,-1.475098,2.299622,51,54,-0.07683796,5.435502,34.79679,0.1150181,102.1665,1.560877,-0.9800961,1.510699,0.3491075,-3.515963,-39.13784,-30.51417,22.504,-36.69576,57.64706,1.06,1160,23,22,0,28.62745,29.01961,0.8290167,15.67302,0.09,6.299161,211.6884,345.3,3.799038,5.464592,132,78,4543,0.97,1.677256,1.484375,1.701168,-0.00390625,0,0,0,0,0,0,0,0,0,0,0,0,12.88,0,0,0,0,0,0,0,0,0,42,38,0,0,0,0,0,0,0,0,0,0,0,0,0,0,0,0,0,0,0,0,0,0,0,0,0,0,0,0,0,0,0,0,0,0,0,0,0,0,0,0,0,0,0,0,0,0,0,0,0,0,0,0,0,0,0,12.9,0.0003004558,0,24.32021,0.5433366,0.01129843,7.871584,0.8229395,1,5.649714
80.015,34.17542,2.065231,27.66981,-9.861008,-8.138702,1.365875,51,54,-1.110223E-16,5.386371,34.79679,0.1182575,100.9812,1.542768,0.1491497,-0.572416,-0.5338753,-3.149761,-38.8364,-31.18491,22.58584,-37.06281,58.43137,1.06,1157,23,22,0,29.01961,29.01961,0.8278174,15.63249,0.09,6.226079,205.5174,345.5,3.754962,5.464301,132,78,4543,0.97,1.69336,1.503906,1.712392,-0.00390625,0,0,0,0,0,0,0,0,0,0,0,0,12.88,0,0,0,0,0,0,0,0,0,42,38,0,0,0,0,0,0,0,0,0,0,0,0,0,0,0,0,0,0,0,0,0,0,0,0,0,0,0,0,0,0,0,0,0,0,0,0,0,0,0,0,0,0,0,0,0,0,0,0,0,0,0,0,0,0,0,12.9,0.0003004558,0,24.55372,0.5754135,0.01161665,7.642117,0.8516678,1,5.649714
81.015,34.17542,2.079647,27.67251,-3.965149,-4.488922,2.687042,51,54,-1.110223E-16,5.445149,34.79679,0.1209572,101.6861,1.553538,-1.115529,1.600369,-0.5371211,-7.390953,-34.96494,-26.13774,16.97496,-39.72591,58.03922,1.06,1152.5,23,22,0,29.01961,29.01961,0.8245393,15.57169,0.09,6.269541,200.9381,345.6,3.781174,5.464064,132,78,4543,0.97,1.695312,1.503906,1.71532,-0.00390625,0,0,0,0,0,0,0,0,0,0,0,0,12.88,0,0,0,0,0,0,0,0,0,42,38,0,0,0,0,0,0,0,0,0,0,0,0,0,0,0,0,0,0,0,0,0,0,0,0,0,0,0,0,0,0,0,0,0,0,0,0,0,0,0,0,0,0,0,0,0,0,0,0,0,0,0,0,0,0,0,12.9,0.0003004558,0,24.58202,0.6019625,0.01188185,7.471836,0.8824568,1,5.649714
82.015,34.17542,2.079647,27.67251,9.966217,1.601929,-2.21138,51,54,-1.110223E-16,5.445149,34.79679,0.1209572,101.6861,1.553538,-0.1368667,1.082992,-0.04369598,-5.887917,-36.60498,-28.04043,18.48074,-38.00902,58.03922,1.06,1152.5,23,22,0,29.01961,29.01961,0.8245393,15.57169,0.09,6.269541,200.9381,345.6,3.781174,5.464064,132,78,4543,0.97,1.695312,1.503906,1.71532,-0.00390625,0,0,0,0,0,0,0,0,0,0,0,0,12.88,0,0,0,0,0,0,0,0,0,42,38,0,0,0,0,0,0,0,0,0,0,0,0,0,0,0,0,0,0,0,0,0,0,0,0,0,0,0,0,0,0,0,0,0,0,0,0,0,0,0,0,0,0,0,0,0,0,0,0,0,0,0,0,0,0,0,12.9,0.0003004558,0,24.58202,0.6019625,0.01188185,7.471836,0.8824568,1,5.649714
83.015,34.17542,2.047004,27.67531,-9.905121,-19.78059,7.642456,51,54,-1.110223E-16,5.366663,34.79679,0.1237566,100.09,1.529152,0.8745648,-0.1395921,0.1910734,-3.769077,-38.30637,-29.53609,21.72573,-37.44394,57.64706,1.06,1151,23,22,0,29.01961,29.01961,0.8202708,15.55142,0.09,6.171129,196.4603,345.7,3.721822,5.463805,132,78,4543,0.97,1.69336,1.507813,1.720688,-0.00390625,0,0,0,0,0,0,0,0,0,0,0,0,12.88,0,0,0,0,0,0,0,0,0,42,38,0,0,0,0,0,0,0,0,0,0,0,0,0,0,0,0,0,0,0,0,0,0,0,0,0,0,0,0,0,0,0,0,0,0,0,0,0,0,0,0,0,0,0,0,0,0,0,0,0,0,0,0,0,0,0,12.9,0.0003004558,0,24.55372,0.6299317,0.01215683,7.305331,0.911555,1,5.649714
84.015,34.17542,2.047004,27.67531,-13.61098,12.27809,-31.3441,51,54,-1.110223E-16,5.366663,34.79679,0.1237566,100.09,1.529152,-0.8418912,0.802036,-1.581863,-6.066289,-33.90154,-28.38266,15.46143,-39.10201,57.64706,1.06,1151,23,22,0,29.01961,29.01961,0.8202708,15.55142,0.09,6.171129,196.4603,345.7,3.721822,5.463805,132,78,4543,0.97,1.69336,1.507813,1.720688,-0.00390625,0,0,0,0,0,0,0,0,0,0,0,0,12.88,0,0,0,0,0,0,0,0,0,42,38,0,0,0,0,0,0,0,0,0,0,0,0,0,0,0,0,0,0,0,0,0,0,0,0,0,0,0,0,0,0,0,0,0,0,0,0,0,0,0,0,0,0,0,0,0,0,0,0,0,0,0,0,0,0,0,12.9,0.0003004558,0,24.55372,0.6299317,0.01215683,7.305331,0.911555,1,5.649714
85.015,34.17542,2.056794,27.67797,-29.99936,-7.291534,10.26251,51,54,-1.110223E-16,5.432449,34.79679,0.1264195,100.5687,1.536466,-0.8708763,1.099518,2.08097,1.627796,-41.71148,-30.84878,26.74676,-32.54517,56.47059,1.06,1142.5,23,22,0,21.17647,21.17647,0.8308824,15.43657,0.09,6.200645,192.5422,346.2,3.739623,5.463558,132,78,4543,0.97,2.213568,2.015625,2.34972,-0.00390625,0,0,0,0,0,0,0,0,0,0,0,0,12.88,0,0,0,0,0,0,0,0,0,42,38,0,0,0,0,0,0,0,0,0,0,0,0,0,0,0,0,0,0,0,0,0,0,0,0,0,0,0,0,0,0,0,0,0,0,0,0,0,0,0,0,0,0,0,0,0,0,0,0,0,0,0,0,0,0,0,12.9,-0.01536759,0,32.09674,0.6565807,0.01241842,7.159636,0.9462112,1,5.649714
86.015,34.17542,2.056794,27.67797,19.79782,34.0715,-32.58238,51,54,-1.110223E-16,5.432449,34.79679,0.1264195,100.5687,1.536466,0.1164135,0.2217857,-1.915916,3.076823,-41.82243,-31.46332,27.60548,-32.67355,56.47059,1.06,1142.5,23,22,0,21.17647,21.17647,0.8308824,15.43657,0.09,6.200645,192.5422,346.2,3.739623,5.463558,132,78,4543,0.97,2.213568,2.015625,2.34972,-0.00390625,0,0,0,0,0,0,0,0,0,0,0,0,12.88,0,0,0,0,0,0,0,0,0,42,38,0,0,0,0,0,0,0,0,0,0,0,0,0,0,0,0,0,0,0,0,0,0,0,0,0,0,0,0,0,0,0,0,0,0,0,0,0,0,0,0,0,0,0,0,0,0,0,0,0,0,0,0,0,0,0,12.9,-0.01536759,0,32.09674,0.6565807,0.01241842,7.159636,0.9462112,1,5.649714
87.015,33.55404,1.542105,27.6804,22.68224,-10.99825,-9.667282,51,54,-0.0662748,4.166024,34.79679,0.128846,76.79887,1.151983,0.9946162,-0.2327195,-0.8432536,-0.6726617,-39.28432,-30.4865,24.21223,-34.87231,43.92157,1.01,1117,23,22,0,23.52941,23.13725,0.6406732,14.38015,0.04,4.649005,187.2719,346.4,2.855748,5.463125,132,78,4543,0.97,1.952976,1.777344,1.743136,-0.00390625,0,0,0,0,0,0,0,0,0,0,0,0,12.88,0,0,0,0,0,0,0,0,0,42,38,0,0,0,0,0,0,0,0,0,0,0,0,0,0,0,0,0,0,0,0,0,0,0,0,0,0,0,0,0,0,0,0,0,0,0,0,0,0,0,0,0,0,0,0,0,0,0,0,0,0,0,0,0,0,0,12.9,-0.02862255,0,28.31815,0.6880155,0.01265678,6.963663,0.9752741,1,5.649714
88.015,33.55404,1.542105,27.6804,17.10666,12.06499,-19.59586,51,54,-0.0662748,4.166024,34.79679,0.128846,76.79887,1.151983,0.7708858,0.3574309,-0.3461273,-1.88908,-37.31669,-31.36337,21.53513,-35.4227,43.92157,1.01,1117,23,22,0,23.52941,23.13725,0.6406732,14.38015,0.04,4.649005,187.2719,346.5,2.855748,5.463125,132,78,4543,0.97,1.952976,1.777344,1.743136,-0.00390625,0,0,0,0,0,0,0,0,0,0,0,0,12.88,0,0,0,0,0,0,0,0,0,42,38,0,0,0,0,0,0,0,0,0,0,0,0,0,0,0,0,0,0,0,0,0,0,0,0,0,0,0,0,0,0,0,0,0,0,0,0,0,0,0,0,0,0,0,0,0,0,0,0,0,0,0,0,0,0,0,12.9,-0.02862255,0,28.31815,0.6880155,0.01265678,6.963663,0.9752741,1,5.649714
89.015,32.93267,1.516945,27.68236,-6.911667,-3.408508,8.245346,51,54,-0.1459641,4.098054,34.79679,0.1308093,76.97126,1.133188,-0.4935845,0.1601687,1.176844,-2.859816,-39.14136,-30.73326,22.06739,-36.09776,56.86274,1.04,1117,23,22,0,29.01961,29.01961,0.8287814,14.80728,0.07,4.573155,183.2898,346.6,2.862158,5.462769,151,78,4543,0.97,1.649928,1.445313,1.520608,-0.00390625,0,0,0,0,0,0,0,0,0,0,0,0,12.88,0,0,0,0,0,0,0,0,0,41,38,0,0,0,0,0,0,0,0,0,0,0,0,0,0,0,0,0,0,0,0,0,0,0,0,0,0,0,0,0,0,0,0,0,0,0,0,0,0,0,0,0,0,0,0,0,0,0,0,0,0,0,0,0,0,0,12.9,-0.04456041,0,23.92396,0.7136746,0.01284964,6.81559,1.013008,1,5.649714
90.015,32.93267,1.516945,27.68236,7.739426,4.741241,2.451843,51,54,-0.1459641,4.098054,34.79679,0.1308093,76.97126,1.133188,0.6789806,-0.227998,1.117626,-0.9744877,-39.11614,-31.24955,23.89481,-34.8884,56.86274,1.04,1117,23,22,0,29.01961,29.01961,0.8287814,14.80728,0.07,4.573155,183.2898,346.6,2.862158,5.462769,151,78,4543,0.97,1.649928,1.445313,1.520608,-0.00390625,0,0,0,0,0,0,0,0,0,0,0,0,12.88,0,0,0,0,0,0,0,0,0,41,38,0,0,0,0,0,0,0,0,0,0,0,0,0,0,0,0,0,0,0,0,0,0,0,0,0,0,0,0,0,0,0,0,0,0,0,0,0,0,0,0,0,0,0,0,0,0,0,0,0,0,0,0,0,0,0,12.9,-0.04456041,0,23.92396,0.7136746,0.01284964,6.81559,1.013008,1,5.649714
91.015,32.93267,2.14032,27.68598,6.909805,0.5297089,5.551575,51,54,-0.07968927,5.808113,34.79679,0.134423,108.6019,1.598862,0.3401776,0.4007327,-0.7763768,-2.848508,-39.31934,-29.55861,24.95028,-32.88101,66.27451,1.07,1112,23,22,0,30.58824,30.58824,0.9032313,15.16622,0.1,6.452453,180.0008,346.6,4.038337,5.462522,151,78,4543,0.97,1.571848,1.304688,1.525,-0.00390625,0,0,0,0,0,0,0,0,0,0,0,0,12.88,0,0,0,0,0,0,0,0,0,41,38,0,0,0,0,0,0,0,0,0,0,0,0,0,0,0,0,0,0,0,0,0,0,0,0,0,0,0,0,0,0,0,0,0,0,0,0,0,0,0,0,0,0,0,0,0,0,0,0,0,0,0,0,0,0,0,12.9,-0.04456041,0,22.7918,0.7467915,0.01320462,6.693287,1.041792,1,5.649714
92.015,32.93267,2.14032,27.68598,-7.112549,-0.7411499,-0.393692,51,54,-0.07968927,5.808113,34.79679,0.134423,108.6019,1.598862,0.8812724,-0.5522935,-0.4418115,-1.780343,-38.58911,-30.16141,23.41891,-37.1188,66.27451,1.07,1112,23,22,0,30.58824,30.58824,0.9032313,15.16622,0.1,6.452453,180.0008,346.6,4.038337,5.462522,151,78,4543,0.97,1.571848,1.304688,1.525,-0.00390625,0,0,0,0,0,0,0,0,0,0,0,0,12.88,0,0,0,0,0,0,0,0,0,41,38,0,0,0,0,0,0,0,0,0,0,0,0,0,0,0,0,0,0,0,0,0,0,0,0,0,0,0,0,0,0,0,0,0,0,0,0,0,0,0,0,0,0,0,0,0,0,0,0,0,0,0,0,0,0,0,12.9,-0.04456041,0,22.7918,0.7467915,0.01320462,6.693287,1.041792,1,5.649714
93.015,32.93267,2.558594,27.68929,-1.69574,-6.417068,7.342422,51,54,-1.110223E-16,6.887423,34.79679,0.1377363,129.8255,1.91132,-0.2581548,0.2593797,0.5766091,-2.799765,-38.5968,-30.85279,23.23695,-37.05841,64.31373,1.08,1121,24,22,0,30.98039,31.37255,0.9305745,15.43186,0.11,7.713427,178.3048,346.7,4.827532,5.462431,151,78,4543,0.97,1.552816,1.304688,1.563552,-0.00390625,0,0,0,0,0,0,0,0,0,0,0,0,12.88,0,0,0,0,0,0,0,0,0,41,38,0,0,0,0,0,0,0,0,0,0,0,0,0,0,0,0,0,0,0,0,0,0,0,0,0,0,0,0,0,0,0,0,0,0,0,0,0,0,0,0,0,0,0,0,0,0,0,0,0,0,0,0,0,0,0,12.9,-0.04456041,0,22.51583,0.7724766,0.01353009,6.630222,1.076744,1,5.649714
94.015,32.93267,2.558594,27.68929,-11.95309,-0.5388336,-1.655777,51,54,-1.110223E-16,6.887423,34.79679,0.1377363,129.8255,1.91132,0.8920568,-0.0424738,-1.287727,-1.455879,-39.05037,-31.84864,23.92066,-36.08688,64.31373,1.08,1121,24,22,0,30.98039,31.37255,0.9305745,15.43186,0.11,7.713427,178.3048,346.7,4.827532,5.462431,151,78,4543,0.97,1.552816,1.304688,1.563552,-0.00390625,0,0,0,0,0,0,0,0,0,0,0,0,12.88,0,0,0,0,0,0,0,0,0,41,38,0,0,0,0,0,0,0,0,0,0,0,0,0,0,0,0,0,0,0,0,0,0,0,0,0,0,0,0,0,0,0,0,0,0,0,0,0,0,0,0,0,0,0,0,0,0,0,0,0,0,0,0,0,0,0,12.9,-0.04456041,0,22.51583,0.7724766,0.01353009,6.630222,1.076744,1,5.649714
95.015,32.93267,2.582663,27.69336,-2.136353,5.757996,-5.519119,51,54,-1.110223E-16,6.860416,34.79679,0.1418061,131.0468,1.929301,-0.7013513,0.6468324,-0.1027678,-3.123111,-38.02393,-30.32603,21.86868,-36.50729,70.19608,1.09,1136,24,22,0,31.76471,31.76471,0.9634377,15.73003,0.12,7.78599,176.53,346.8,4.872946,5.462341,151,78,4543,0.97,1.504016,1.226563,1.515728,-0.00390625,0,0,0,0,0,0,0,0,0,0,0,0,12.88,0,0,0,0,0,0,0,0,0,41,38,0,0,0,0,0,0,0,0,0,0,0,0,0,0,0,0,0,0,0,0,0,0,0,0,0,0,0,0,0,0,0,0,0,0,0,0,0,0,0,0,0,0,0,0,0,0,0,0,0,0,0,0,0,0,0,12.9,-0.02919281,0,21.80823,0.8032973,0.01392987,6.564228,1.106475,1,5.649714
96.015,32.93267,2.582663,27.69336,-16.72612,-10.7352,9.383942,51,54,-1.110223E-16,6.860416,34.79679,0.1418061,131.0468,1.929301,-0.5174702,0.3025432,0.6366479,-2.804871,-39.05245,-30.18571,22.13979,-36.70186,70.19608,1.09,1136,24,22,0,31.76471,31.76471,0.9634377,15.73003,0.12,7.78599,176.53,346.8,4.872946,5.462341,151,78,4543,0.97,1.504016,1.226563,1.515728,-0.00390625,0,0,0,0,0,0,0,0,0,0,0,0,12.88,0,0,0,0,0,0,0,0,0,41,38,0,0,0,0,0,0,0,0,0,0,0,0,0,0,0,0,0,0,0,0,0,0,0,0,0,0,0,0,0,0,0,0,0,0,0,0,0,0,0,0,0,0,0,0,0,0,0,0,0,0,0,0,0,0,0,12.9,-0.02919281,0,21.80823,0.8032973,0.01392987,6.564228,1.106475,1,5.649714
97.015,33.55404,2.73259,27.69695,2.375748,0.8586426,-1.936646,51,54,0.07824902,7.195333,34.79679,0.1453998,136.0866,2.041299,0.03329467,-0.1813641,-0.2265795,-2.443268,-39.10233,-30.47416,22.28793,-36.08783,65.88235,1.08,1146,24,22,0,31.37255,31.76471,0.9216127,15.72292,0.11,8.237976,175.1971,346.9,5.060349,5.462278,151,78,4543,0.97,1.552816,1.300781,1.589416,-0.00390625,0,0,0,0,0,0,0,0,0,0,0,0,12.88,0,0,0,0,0,0,0,0,0,41,38,0,0,0,0,0,0,0,0,0,0,0,0,0,0,0,0,0,0,0,0,0,0,0,0,0,0,0,0,0,0,0,0,0,0,0,0,0,0,0,0,0,0,0,0,0,0,0,0,0,0,0,0,0,0,0,12.9,-0.01354301,0,22.51583,0.8299217,0.01428289,6.514661,1.136309,1,5.649714
98.015,33.55404,2.516458,27.70034,-2.31485,-17.09393,10.21336,51,54,0.07824902,6.611799,34.79679,0.148783,125.3229,1.879844,0.2913052,-0.1494226,0.5976775,-4.775363,-38.16217,-28.51215,20.13383,-38.08437,63.52941,1.08,1148.5,24,22,0,31.37255,31.37255,0.8963984,15.75722,0.11,7.586399,173.6197,347,4.660103,5.462162,151,78,4543,0.97,1.57136,1.324219,1.60308,-0.00390625,0,0,0,0,0,0,0,0,0,0,0,0,12.88,0,0,0,0,0,0,0,0,0,41,38,0,0,0,0,0,0,0,0,0,0,0,0,0,0,0,0,0,0,0,0,0,0,0,0,0,0,0,0,0,0,0,0,0,0,0,0,0,0,0,0,0,0,0,0,0,0,0,0,0,0,0,0,0,0,0,12.9,-0.01354301,0,22.78472,0.8569478,0.01461523,6.456008,1.16537,1,5.649714
99.015,33.55404,2.516458,27.70034,-8.321426,1.517731,1.750931,51,54,0.07824902,6.611799,34.79679,0.148783,125.3229,1.879844,-0.2643938,-0.4673465,0.1631428,-3.249234,-37.83036,-29.32378,21.38935,-37.01501,63.52941,1.08,1148.5,24,22,0,31.37255,31.37255,0.8963984,15.75722,0.11,7.586399,173.6197,347.2,4.660103,5.462162,151,78,4543,0.97,1.57136,1.324219,1.60308,-0.00390625,0,0,0,0,0,0,0,0,0,0,0,0,12.88,0,0,0,0,0,0,0,0,0,41,38,0,0,0,0,0,0,0,0,0,0,0,0,0,0,0,0,0,0,0,0,0,0,0,0,0,0,0,0,0,0,0,0,0,0,0,0,0,0,0,0,0,0,0,0,0,0,0,0,0,0,0,0,0,0,0,12.9,-0.01354301,0,22.78472,0.8569478,0.01461523,6.456008,1.16537,1,5.649714
100.015,33.55404,2.516458,27.70034,-2.203323,-0.4706116,1.60556,51,54,0.07824902,6.611799,34.79679,0.148783,125.3229,1.879844,-0.3063455,0.1993037,0.08052466,-2.810036,-38.39603,-29.11386,21.70908,-37.38367,63.52941,1.08,1148.5,24,22,0,31.37255,31.37255,0.8963984,15.75722,0.11,7.586399,173.6197,347.3,4.660103,5.462162,151,78,4543,0.97,1.57136,1.324219,1.60308,-0.00390625,0,0,0,0,0,0,0,0,0,0,0,0,12.88,0,0,0,0,0,0,0,0,0,41,38,0,0,0,0,0,0,0,0,0,0,0,0,0,0,0,0,0,0,0,0,0,0,0,0,0,0,0,0,0,0,0,0,0,0,0,0,0,0,0,0,0,0,0,0,0,0,0,0,0,0,0,0,0,0,0,12.9,-0.01354301,0,22.78472,0.8569478,0.01461523,6.456008,1.16537,1,5.649714
101.015,33.55404,2.380098,27.70343,-10.76941,-11.27161,9.643433,51,54,-1.110223E-16,6.239941,34.79679,0.1518737,118.532,1.77798,1.19244,-0.5893114,1.63949,1.929138,-41.88731,-35.50699,28.6776,-32.864,63.52941,1.08,1151,24,22,0,31.37255,31.76471,0.8773121,15.79152,0.11,7.175313,171.9955,347.4,4.407585,5.462017,151,78,4543,0.97,1.558184,1.316406,1.606496,-0.00390625,0,0,0,0,0,0,0,0,0,0,0,0,12.88,0,0,0,0,0,0,0,0,0,41,38,0,0,0,0,0,0,0,0,0,0,0,0,0,0,0,0,0,0,0,0,0,0,0,0,0,0,0,0,0,0,0,0,0,0,0,0,0,0,0,0,0,0,0,0,0,0,0,0,0,0,0,0,0,0,0,12.9,-0.01354301,0,22.59367,0.8830097,0.01491883,6.395613,1.200402,1,5.649714
102.015,34.17542,2.432163,27.70726,-10.09515,3.276306,-8.566742,51,54,0.06619829,6.37644,34.79679,0.1557058,118.9226,1.816874,-1.17244,1.081399,0.617737,-5.988317,-39.07701,-30.3626,18.20797,-37.76811,63.92157,1.08,1151,24,22,0,31.37255,30.98039,0.8945561,15.79152,0.11,7.332273,170.1585,347.4,4.42211,5.461844,151,78,4543,0.97,1.591368,1.363281,1.667008,-0.00390625,0,0,0,0,0,0,0,0,0,0,0,0,12.88,0,0,0,0,0,0,0,0,0,41,38,0,0,0,0,0,0,0,0,0,0,0,0,0,0,0,0,0,0,0,0,0,0,0,0,0,0,0,0,0,0,0,0,0,0,0,0,0,0,0,0,0,0,0,0,0,0,0,0,0,0,0,0,0,0,0,12.9,-0.0003033503,0,23.07484,0.9150636,0.01529527,6.327303,1.229461,1,5.649714
103.015,34.17542,2.432163,27.70726,-9.584549,-3.884338,-0.9878387,51,54,0.06619829,6.37644,34.79679,0.1557058,118.9226,1.816874,-0.6789571,0.3007944,-0.2953096,-3.63635,-38.35048,-29.75525,21.83603,-37.44698,63.92157,1.08,1151,24,22,0,31.37255,30.98039,0.8945561,15.79152,0.11,7.332273,170.1585,347.5,4.42211,5.461844,151,78,4543,0.97,1.591368,1.363281,1.667008,-0.00390625,0,0,0,0,0,0,0,0,0,0,0,0,12.88,0,0,0,0,0,0,0,0,0,41,38,0,0,0,0,0,0,0,0,0,0,0,0,0,0,0,0,0,0,0,0,0,0,0,0,0,0,0,0,0,0,0,0,0,0,0,0,0,0,0,0,0,0,0,0,0,0,0,0,0,0,0,0,0,0,0,12.9,-0.0003033503,0,23.07484,0.9150636,0.01529527,6.327303,1.229461,1,5.649714
104.015,34.17542,2.37421,27.71033,-0.1306458,-0.3191071,1.582916,51,54,0.06619829,6.136534,34.79679,0.1587759,116.089,1.773582,-0.3839779,-0.2518704,-0.2938091,-4.487848,-37.38016,-29.06131,19.38662,-37.48181,64.31373,1.08,1167.5,24,22,0,31.76471,32.15686,0.8678836,16.0179,0.11,7.157562,168.6067,347.4,4.316741,5.461679,151,78,4543,0.97,1.432768,1.085938,1.489376,-0.00390625,0,0,0,0,0,0,0,0,0,0,0,0,12.88,0,0,0,0,0,0,0,0,0,41,38,0,0,0,0,0,0,0,0,0,0,0,0,0,0,0,0,0,0,0,0,0,0,0,0,0,0,0,0,0,0,0,0,0,0,0,0,0,0,0,0,0,0,0,0,0,0,0,0,0,0,0,0,0,0,0,12.9,-0.0003033503,0,20.77514,0.9416938,0.01559685,6.269601,1.259948,1,5.649714
105.015,34.17542,2.37421,27.71033,16.10527,-7.204865,-6.956573,51,54,0.06619829,6.136534,34.79679,0.1587759,116.089,1.773582,0.2596602,-1.398849,1.794911,-2.737554,-37.85583,-29.42621,21.87062,-36.50282,64.31373,1.08,1167.5,24,22,0,31.76471,32.15686,0.8678836,16.0179,0.11,7.157562,168.6067,347.4,4.316741,5.461679,151,78,4543,0.97,1.432768,1.085938,1.489376,-0.00390625,0,0,0,0,0,0,0,0,0,0,0,0,12.88,0,0,0,0,0,0,0,0,0,41,38,0,0,0,0,0,0,0,0,0,0,0,0,0,0,0,0,0,0,0,0,0,0,0,0,0,0,0,0,0,0,0,0,0,0,0,0,0,0,0,0,0,0,0,0,0,0,0,0,0,0,0,0,0,0,0,12.9,-0.0003033503,0,20.77514,0.9416938,0.01559685,6.269601,1.259948,1,5.649714
106.015,34.79679,2.556309,27.71383,12.64107,7.701248,-4.697113,51,54,0.07601495,6.545531,34.79679,0.1622706,122.7609,1.909614,0.5130383,0.6425487,-0.6354539,-5.535766,-36.90053,-27.46964,19.34806,-38.11444,65.4902,1.09,1178.5,24,22,0,31.76471,31.76471,0.9156258,16.31853,0.12,7.706541,167.2693,347.3,4.564835,5.461545,151,78,4543,0.97,1.566968,1.316406,1.610888,-0.00390625,0,0,0,0,0,0,0,0,0,0,0,0,12.88,0,0,0,0,0,0,0,0,0,41,38,0,0,0,0,0,0,0,0,0,0,0,0,0,0,0,0,0,0,0,0,0,0,0,0,0,0,0,0,0,0,0,0,0,0,0,0,0,0,0,0,0,0,0,0,0,0,0,0,0,0,0,0,0,0,0,12.9,0.0281546,0,22.72104,0.9701158,0.01594013,6.219869,1.288965,1,5.649714
107.015,34.79679,2.556309,27.71383,3.353607,-4.273743,0.6378479,51,54,0.07601495,6.545531,34.79679,0.1622706,122.7609,1.909614,0.4433394,-0.7470149,-1.114906,-5.76125,-37.01217,-28.41432,19.13475,-37.61053,65.4902,1.09,1178.5,24,22,0,31.76471,31.76471,0.9156258,16.31853,0.12,7.706541,167.2693,347.4,4.564835,5.461545,151,78,4543,0.97,1.566968,1.316406,1.610888,-0.00390625,0,0,0,0,0,0,0,0,0,0,0,0,12.88,0,0,0,0,0,0,0,0,0,41,38,0,0,0,0,0,0,0,0,0,0,0,0,0,0,0,0,0,0,0,0,0,0,0,0,0,0,0,0,0,0,0,0,0,0,0,0,0,0,0,0,0,0,0,0,0,0,0,0,0,0,0,0,0,0,0,12.9,0.0281546,0,22.72104,0.9701158,0.01594013,6.219869,1.288965,1,5.649714
108.015,34.79679,2.556309,27.71383,-32.64693,-24.55118,6.576569,51,54,0.07601495,6.545531,34.79679,0.1622706,122.7609,1.909614,-0.3960008,2.178975,3.230779,-3.090915,-38.74121,-29.52905,24.27333,-36.80568,65.4902,1.09,1178.5,24,22,0,31.76471,31.76471,0.9156258,16.31853,0.12,7.706541,167.2693,347.4,4.564835,5.461545,151,78,4543,0.97,1.566968,1.316406,1.610888,-0.00390625,0,0,0,0,0,0,0,0,0,0,0,0,12.88,0,0,0,0,0,0,0,0,0,41,38,0,0,0,0,0,0,0,0,0,0,0,0,0,0,0,0,0,0,0,0,0,0,0,0,0,0,0,0,0,0,0,0,0,0,0,0,0,0,0,0,0,0,0,0,0,0,0,0,0,0,0,0,0,0,0,12.9,0.0281546,0,22.72104,0.9701158,0.01594013,6.219869,1.288965,1,5.649714
109.015,34.79679,2.507229,27.7171,-34.00832,-30.03094,-18.68781,57,60,0.07601495,6.381951,34.79679,0.1655455,120.4039,1.87295,1.301469,-0.2137716,0.9960824,1.08348,-46.13639,-32.09432,26.09789,-28.31705,61.17647,1.08,1185.5,24,22,0,32.54902,38.82353,0.8736818,16.26485,0.11,7.558578,166.019,347.5,4.477191,5.461408,170,78,4544,0.97,1.33224,0.90625,1.306864,-0.00390625,0,0,0,0,0,0,0,0,0,0,0,0,12.84,0,0,0,0,0,0,0,0,0,43,39,0,0,0,0,0,0,0,0,0,0,0,0,0,0,0,0,0,0,0,0,0,0,0,0,0,0,0,0,0,0,0,0,0,0,0,0,0,0,0,0,0,0,0,0,0,0,0,0,0,0,0,0,0,0,0,12.9,0.04409245,0,19.31748,0.9971479,0.01626184,6.173379,1.34152,1,5.649714
110.015,34.79679,2.507229,27.7171,-15.51746,-20.75107,7.211914,57,60,0.07601495,6.381951,34.79679,0.1655455,120.4039,1.87295,0.747104,0.1021558,-0.2605688,0.5161995,-44.43012,-34.11945,22.98792,-28.61586,61.17647,1.08,1185.5,24,22,0,32.54902,38.82353,0.8736818,16.26485,0.11,7.558578,166.019,347.5,4.477191,5.461408,170,78,4544,0.97,1.33224,0.90625,1.306864,-0.00390625,0,0,0,0,0,0,0,0,0,0,0,0,12.84,0,0,0,0,0,0,0,0,0,43,39,0,0,0,0,0,0,0,0,0,0,0,0,0,0,0,0,0,0,0,0,0,0,0,0,0,0,0,0,0,0,0,0,0,0,0,0,0,0,0,0,0,0,0,0,0,0,0,0,0,0,0,0,0,0,0,12.9,0.04409245,0,19.31748,0.9971479,0.01626184,6.173379,1.34152,1,5.649714
111.015,36.03953,2.639319,27.7233,12.54736,-2.047943,3.20697,57,60,0.08817396,6.496246,36.03953,0.1717421,122.3766,1.971624,-0.335561,0.4585473,1.844831,-3.051186,-40.32906,-33.19355,19.8074,-33.73763,71.37255,1.14,1226,24,22,0,33.33333,32.94118,0.9787484,17.75498,0.17,7.956791,163.8911,347.6,4.550547,5.46116,170,78,4544,0.97,1.482544,1.1875,1.534272,-0.00390625,0,0,0,0,0,0,0,0,0,0,0,0,12.84,0,0,0,0,0,0,0,0,0,43,39,0,0,0,0,0,0,0,0,0,0,0,0,0,0,0,0,0,0,0,0,0,0,0,0,0,0,0,0,0,0,0,0,0,0,0,0,0,0,0,0,0,0,0,0,0,0,0,0,0,0,0,0,0,0,0,12.9,0.06172724,0,21.49689,1.047903,0.01687054,6.094254,1.370256,1,5.649714
112.015,36.03953,2.639319,27.7233,2.784027,-0.1523743,-19.31157,57,60,0.08817396,6.496246,36.03953,0.1717421,122.3766,1.971624,-0.6602061,0.2120359,-2.080165,-8.590519,-35.84837,-30.29354,12.83648,-36.3567,71.37255,1.14,1226,24,22,0,33.33333,32.94118,0.9787484,17.75498,0.17,7.956791,163.8911,347.7,4.550547,5.46116,170,78,4544,0.97,1.482544,1.1875,1.534272,-0.00390625,0,0,0,0,0,0,0,0,0,0,0,0,12.84,0,0,0,0,0,0,0,0,0,43,39,0,0,0,0,0,0,0,0,0,0,0,0,0,0,0,0,0,0,0,0,0,0,0,0,0,0,0,0,0,0,0,0,0,0,0,0,0,0,0,0,0,0,0,0,0,0,0,0,0,0,0,0,0,0,0,12.9,0.06172724,0,21.49689,1.047903,0.01687054,6.094254,1.370256,1,5.649714
113.015,36.03953,2.761676,27.72689,7.541091,-2.629547,0.5040588,57,60,0.08817396,6.775301,36.03953,0.1753393,128.0499,2.063026,0.1950135,-0.5027204,0.3865616,-5.435073,-35.84491,-30.70906,15.77295,-36.58197,63.13726,1.08,1230,24,22,0,31.76471,31.76471,0.848821,16.87539,0.11,8.325661,162.9437,347.6,4.761506,5.461053,170,78,4544,0.97,1.572824,1.335938,1.645048,-0.00390625,0,0,0,0,0,0,0,0,0,0,0,0,12.84,0,0,0,0,0,0,0,0,0,43,39,0,0,0,0,0,0,0,0,0,0,0,0,0,0,0,0,0,0,0,0,0,0,0,0,0,0,0,0,0,0,0,0,0,0,0,0,0,0,0,0,0,0,0,0,0,0,0,0,0,0,0,0,0,0,0,13,0.06172724,0,22.80595,1.076073,0.0172239,6.059023,1.40042,1,5.649714
114.015,36.03953,2.965997,27.73089,-0.8255005,0.4681549,-1.637207,57,60,-1.110223E-16,7.327204,36.03953,0.179332,137.5236,2.215659,-0.6371417,0.5834635,0.9050426,-5.266212,-35.77717,-30.65645,15.35903,-36.08858,35.68628,0.81,1221.5,24,22,0,31.37255,31.37255,1.027176,12.56908,-0.16,8.941632,162.3007,347.7,5.113784,5.461005,170,78,4544,0.97,1.267824,0.734375,1.142408,-0.00390625,0,0,0,0,0,0,0,0,0,0,0,0,12.84,0,0,0,0,0,0,0,0,0,43,39,0,0,0,0,0,0,0,4,0,0,0,0,0,0,0,0,0,0,0,0,0,0,0,0,0,0,0,0,0,0,0,0,0,0,0,0,0,0,0,0,0,0,0,0,0,0,0,0,0,0,0,0,0,0,0,13,0.06172724,0,18.38345,1.104937,0.01761611,6.035114,1.429402,1,5.649714
115.015,36.03953,2.965997,27.73089,3.949402,-7.8582,1.918305,57,60,-1.110223E-16,7.327204,36.03953,0.179332,137.5236,2.215659,-0.4930003,0.951256,2.225659,-4.824449,-36.89431,-31.04807,16.41162,-34.68158,35.68628,0.81,1221.5,24,22,0,31.37255,31.37255,1.027176,12.56908,-0.16,8.941632,162.3007,347.6,5.113784,5.461005,170,78,4544,0.97,1.267824,0.734375,1.142408,-0.00390625,0,0,0,0,0,0,0,0,0,0,0,0,12.84,0,0,0,0,0,0,0,0,0,43,39,0,0,0,0,0,0,0,4,0,0,0,0,0,0,0,0,0,0,0,0,0,0,0,0,0,0,0,0,0,0,0,0,0,0,0,0,0,0,0,0,0,0,0,0,0,0,0,0,0,0,0,0,0,0,0,13,0.06172724,0,18.38345,1.104937,0.01761611,6.035114,1.429402,1,5.649714
116.015,36.6609,1.594962,27.73299,20.04863,2.374634,4.101898,57,60,0.07952958,3.898703,36.6609,0.1814397,72.69974,1.191468,-0.6089532,-0.3993663,1.141803,-5.455614,-37.1495,-32.49504,15.62131,-34.0282,39.60784,0.83,1234.5,24,22,0,29.01961,29.41176,0.984058,13.01649,-0.14,4.808352,160.0621,347.6,2.703323,5.460592,170,78,4544,0.97,0.946232,-0.3710938,0.877424,-0.00390625,0,0,0,0,0,0,0,0,0,0,0,0,12.84,0,0,0,0,0,0,0,0,0,43,39,0,0,0,0,0,0,0,4,0,0,0,0,0,0,0,0,0,0,0,0,0,0,0,0,0,0,0,0,0,0,0,0,0,0,0,0,0,0,0,0,0,0,0,0,0,0,0,0,0,0,0,0,0,0,0,12.9,0.06198336,0,13.72036,1.133558,0.01782315,5.951873,1.464807,1,5.649714
117.015,36.6609,1.594962,27.73299,-10.69356,-12.46481,3.627167,57,60,0.07952958,3.898703,36.6609,0.1814397,72.69974,1.191468,-0.6781873,-0.2664047,-0.2080968,-5.227551,-37.06377,-32.6115,15.31843,-33.72272,39.60784,0.83,1234.5,24,22,0,29.01961,29.41176,0.984058,13.01649,-0.14,4.808352,160.0621,347.6,2.703323,5.460592,170,78,4544,0.97,0.946232,-0.3710938,0.877424,-0.00390625,0,0,0,0,0,0,0,0,0,0,0,0,12.84,0,0,0,0,0,0,0,0,0,43,39,0,0,0,0,0,0,0,4,0,0,0,0,0,0,0,0,0,0,0,0,0,0,0,0,0,0,0,0,0,0,0,0,0,0,0,0,0,0,0,0,0,0,0,0,0,0,0,0,0,0,0,0,0,0,0,12.9,0.06198336,0,13.72036,1.133558,0.01782315,5.951873,1.464807,1,5.649714
118.015,36.6609,1.56156,27.73544,6.662415,-8.515656,6.39917,57,60,0.07952958,3.843522,36.6609,0.1838888,71.17728,1.166517,-0.4347836,0.8215231,1.995643,-4.041176,-37.25795,-32.85482,15.62098,-33.58351,41.17647,0.74,1226,24,22,0,28.62745,27.84314,0.8589179,11.52516,-0.23,4.707657,157.3692,347.5,2.646711,5.460064,170,78,4544,0.97,0.954528,-0.3125,0.879376,-0.00390625,0,0,0,0,0,0,0,0,0,0,0,0,12.84,0,0,0,0,0,0,0,0,0,43,39,0,0,0,0,0,0,0,4,0,0,0,0,0,0,0,0,0,0,0,0,0,0,0,0,0,0,0,0,0,0,0,0,0,0,0,0,0,0,0,0,0,0,0,0,0,0,0,0,0,0,0,0,0,0,0,12.9,0.06198336,0,13.84066,1.168518,0.01806373,5.851736,1.493901,1,5.649714
119.015,36.6609,1.56156,27.73544,6.226074,0.3803253,5.794998,57,60,0.07952958,3.843522,36.6609,0.1838888,71.17728,1.166517,-0.7590067,-0.01310395,0.3955893,-5.889657,-36.24237,-31.92212,13.00038,-33.79826,41.17647,0.74,1226,24,22,0,28.62745,27.84314,0.8589179,11.52516,-0.23,4.707657,157.3692,347.5,2.646711,5.460064,170,78,4544,0.97,0.954528,-0.3125,0.879376,-0.00390625,0,0,0,0,0,0,0,0,0,0,0,0,12.84,0,0,0,0,0,0,0,0,0,43,39,0,0,0,0,0,0,0,4,0,0,0,0,0,0,0,0,0,0,0,0,0,0,0,0,0,0,0,0,0,0,0,0,0,0,0,0,0,0,0,0,0,0,0,0,0,0,0,0,0,0,0,0,0,0,0,12.9,0.06198336,0,13.84066,1.168518,0.01806373,5.851736,1.493901,1,5.649714
120.015,36.03953,1.549887,27.73746,-7.255188,0.3968964,0.5577087,57,60,-0.07996386,3.83827,36.6609,0.1859004,71.86323,1.157796,0.1252076,0.9965177,0.3727894,-5.173626,-36.67273,-32.30667,13.50549,-33.2236,40.78431,0.72,1218.5,24,22,0,27.45098,27.45098,0.8257064,11.14507,-0.25,4.672466,155.3699,347.5,2.672217,5.459651,170,78,4544,0.97,0.948672,-0.3476563,0.89304,-0.00390625,0,0,0,0,0,0,0,0,0,0,0,0,12.84,0,0,0,0,0,0,0,0,0,43,39,0,0,0,0,0,0,0,4,0,0,0,0,0,0,0,0,0,0,0,0,0,0,0,0,0,0,0,0,0,0,0,0,0,0,0,0,0,0,0,0,0,0,0,0,0,0,0,0,0,0,0,0,0,0,0,12.9,0.04599059,0,13.75574,1.196502,0.01826134,5.777395,1.524065,1,5.649714
121.015,36.03953,1.549887,27.73746,-2.467896,2.47966,-9.232254,57,60,-0.07996386,3.83827,36.6609,0.1859004,71.86323,1.157796,-0.6254652,0.5747616,0.7228187,-5.574118,-36.00356,-32.32021,12.63667,-32.99525,40.78431,0.72,1218.5,24,22,0,27.45098,27.45098,0.8257064,11.14507,-0.25,4.672466,155.3699,347.6,2.672217,5.459651,170,78,4544,0.97,0.948672,-0.3476563,0.89304,-0.00390625,0,0,0,0,0,0,0,0,0,0,0,0,12.84,0,0,0,0,0,0,0,0,0,43,39,0,0,0,0,0,0,0,4,0,0,0,0,0,0,0,0,0,0,0,0,0,0,0,0,0,0,0,0,0,0,0,0,0,0,0,0,0,0,0,0,0,0,0,0,0,0,0,0,0,0,0,0,0,0,0,12.9,0.04599059,0,13.75574,1.196502,0.01826134,5.777395,1.524065,1,5.649714
122.015,36.03953,1.550645,27.73955,21.61469,6.032852,-5.480377,57,60,-0.07996386,3.827582,36.6609,0.187993,71.89835,1.158362,0.2380767,-0.7866996,-1.825706,-5.950703,-36.05164,-32.60408,11.5143,-32.54053,39.60784,0.71,1222.5,24,22,0,27.45098,27.45098,0.839187,11.02636,-0.26,4.67475,153.4017,347.6,2.673523,5.459225,170,78,4544,0.97,1.893928,1.804688,1.998848,-0.00390625,0,0,0,0,0,0,0,0,0,0,0,0,12.84,0,0,0,0,0,0,0,0,0,43,39,0,0,0,0,0,0,0,0,0,0,0,0,0,0,0,0,0,0,0,0,0,0,0,0,0,0,0,0,0,0,0,0,0,0,0,0,0,0,0,0,0,0,0,0,0,0,0,0,0,0,0,0,0,0,0,12.9,0.03275093,0,27.46196,1.225495,0.0184669,5.704206,1.552822,1,5.649714
123.015,36.03953,1.550645,27.73955,4.447067,-9.508652,-0.7953339,57,60,-0.07996386,3.827582,36.6609,0.187993,71.89835,1.158362,0.9304692,0.2830646,-1.016886,-2.094541,-38.11435,-35.38082,15.38004,-31.65096,39.60784,0.71,1222.5,24,22,0,27.45098,27.45098,0.839187,11.02636,-0.26,4.67475,153.4017,347.6,2.673523,5.459225,170,78,4544,0.97,1.893928,1.804688,1.998848,-0.00390625,0,0,0,0,0,0,0,0,0,0,0,0,12.84,0,0,0,0,0,0,0,0,0,43,39,0,0,0,0,0,0,0,0,0,0,0,0,0,0,0,0,0,0,0,0,0,0,0,0,0,0,0,0,0,0,0,0,0,0,0,0,0,0,0,0,0,0,0,0,0,0,0,0,0,0,0,0,0,0,0,12.9,0.03275093,0,27.46196,1.225495,0.0184669,5.704206,1.552822,1,5.649714
124.015,36.03953,1.235801,27.74115,4.53006,-3.873962,-5.638748,57,60,-1.110223E-16,3.092161,36.6609,0.1895931,57.30005,0.9231675,-0.8560125,-0.07731541,-0.3762821,-4.670877,-36.96393,-34.08376,11.71065,-31.37885,53.72549,1.02,1206,24,22,0,25.88235,25.09804,0.6864098,15.62688,0.05,3.725585,151.2477,347.6,2.130689,5.45873,170,78,4544,0.97,1.763632,1.589844,1.81048,-0.00390625,0,0,0,0,0,0,0,0,0,0,0,0,12.84,0,0,0,0,0,0,0,0,0,43,39,0,0,0,0,0,0,0,0,0,0,0,0,0,0,0,0,0,0,0,0,0,0,0,0,0,0,0,0,0,0,0,0,0,0,0,0,0,0,0,0,0,0,0,0,0,0,0,0,0,0,0,0,0,0,0,12.9,0.03275093,0,25.57266,1.253527,0.01862407,5.624111,1.587811,1,5.649714
125.015,36.03953,1.235801,27.74115,7.475479,-0.7313232,-4.443192,57,60,-1.110223E-16,3.092161,36.6609,0.1895931,57.30005,0.9231675,0.0411251,-0.1135217,0.2939496,-3.333368,-37.08543,-35.7578,12.06636,-31.00728,53.72549,1.02,1206,24,22,0,25.88235,25.09804,0.6864098,15.62688,0.05,3.725585,151.2477,347.6,2.130689,5.45873,170,78,4544,0.97,1.763632,1.589844,1.81048,-0.00390625,0,0,0,0,0,0,0,0,0,0,0,0,12.84,0,0,0,0,0,0,0,0,0,43,39,0,0,0,0,0,0,0,0,0,0,0,0,0,0,0,0,0,0,0,0,0,0,0,0,0,0,0,0,0,0,0,0,0,0,0,0,0,0,0,0,0,0,0,0,0,0,0,0,0,0,0,0,0,0,0,12.9,0.03275093,0,25.57266,1.253527,0.01862407,5.624111,1.587811,1,5.649714
126.015,36.03953,1.685719,27.7438,13.72821,2.306259,-5.817383,57,60,-1.110223E-16,4.235486,36.6609,0.1922404,78.16131,1.259265,0.2065437,-1.683592,-0.7265663,-3.518142,-37.57705,-35.72923,12.40343,-30.11502,51.37255,1.02,1201,24,22,0,25.09804,25.09804,0.6997173,15.56209,0.05,5.08196,149.3242,347.5,2.90641,5.458272,170,78,4544,0.97,1.823168,1.65625,1.830488,-0.00390625,0,0,0,0,0,0,0,0,0,0,0,0,12.84,0,0,0,0,0,0,0,0,0,43,39,0,0,0,0,0,0,0,0,0,0,0,0,0,0,0,0,0,0,0,0,0,0,0,0,0,0,0,0,0,0,0,0,0,0,0,0,0,0,0,0,0,0,0,0,0,0,0,0,0,0,0,0,0,0,0,12.9,0.01754794,0,26.43594,1.287403,0.01888413,5.552587,1.616926,1,5.649714
127.015,36.03953,1.685719,27.7438,18.4003,19.82574,-10.74414,57,60,-1.110223E-16,4.235486,36.6609,0.1922404,78.16131,1.259265,-1.043256,-0.9555979,-0.988822,-4.75003,-36.11633,-35.26182,8.841795,-30.51332,51.37255,1.02,1201,24,22,0,25.09804,25.09804,0.6997173,15.56209,0.05,5.08196,149.3242,347.5,2.90641,5.458272,170,78,4544,0.97,1.823168,1.65625,1.830488,-0.00390625,0,0,0,0,0,0,0,0,0,0,0,0,12.84,0,0,0,0,0,0,0,0,0,43,39,0,0,0,0,0,0,0,0,0,0,0,0,0,0,0,0,0,0,0,0,0,0,0,0,0,0,0,0,0,0,0,0,0,0,0,0,0,0,0,0,0,0,0,0,0,0,0,0,0,0,0,0,0,0,0,12.9,0.01754794,0,26.43594,1.287403,0.01888413,5.552587,1.616926,1,5.649714
128.015,35.41816,1.56979,27.74584,47.85173,-3.794723,28.61646,57,60,-0.07977246,3.978993,36.6609,0.1942826,74.06301,1.172664,0.5043948,-1.015843,6.458664,0.5114654,-41.67052,-37.47546,16.51435,-25.2917,50.58823,1.02,1190.5,24,22,0,25.09804,25.09804,0.6842781,15.42604,0.05,4.732468,147.7468,347.4,2.754016,5.457878,189,78,4544,0.97,1.484984,1.195313,1.53964,-0.00390625,0,0,0,0,0,0,0,0,0,0,0,0,12.88,0,0,0,0,0,0,0,0,0,41,40,0,0,0,0,0,0,0,0,0,0,0,0,0,0,0,0,0,0,0,0,0,0,0,0,0,0,0,0,0,0,0,0,0,0,0,0,0,0,0,0,0,0,0,0,0,0,0,0,0,0,0,0,0,0,0,12.9,0.001593444,0,21.53227,1.31497,0.01908473,5.49393,1.6545,1,5.649714
129.015,35.41816,1.904147,27.74903,0.3648224,-14.3103,1.080307,57,60,-0.07977246,4.788288,36.6609,0.1974744,89.83804,1.422436,0.6414663,-1.001462,-1.724297,-5.529074,-36.53139,-35.30996,9.675169,-28.91618,65.88235,1.08,1200,24,22,0,33.72549,33.72549,0.8503284,16.46379,0.11,5.740458,146.2219,347.4,3.340606,5.45748,189,78,4544,0.97,1.476688,1.1875,1.534272,-0.00390625,0,0,0,0,0,0,0,0,0,0,0,0,12.88,0,0,0,0,0,0,0,0,0,41,40,0,0,0,0,0,0,0,0,0,0,0,0,0,0,0,0,0,0,0,0,0,0,0,0,0,0,0,0,0,0,0,0,0,0,0,0,0,0,0,0,0,0,0,0,0,0,0,0,0,0,0,0,0,0,0,12.9,-0.01604135,0,21.41198,1.350511,0.01939827,5.437229,1.683213,1,5.649714
130.015,35.41816,1.904147,27.74903,-8.419037,-8.037125,-4.462006,57,60,-0.07977246,4.788288,36.6609,0.1974744,89.83804,1.422436,0.4461102,-0.6444532,0.502858,-3.794176,-37.12897,-35.34009,10.79254,-27.88458,65.88235,1.08,1200,24,22,0,33.72549,33.72549,0.8503284,16.46379,0.11,5.740458,146.2219,347.2,3.340606,5.45748,189,78,4544,0.97,1.476688,1.1875,1.534272,-0.00390625,0,0,0,0,0,0,0,0,0,0,0,0,12.88,0,0,0,0,0,0,0,0,0,41,40,0,0,0,0,0,0,0,0,0,0,0,0,0,0,0,0,0,0,0,0,0,0,0,0,0,0,0,0,0,0,0,0,0,0,0,0,0,0,0,0,0,0,0,0,0,0,0,0,0,0,0,0,0,0,0,12.9,-0.01604135,0,21.41198,1.350511,0.01939827,5.437229,1.683213,1,5.649714
131.015,35.41816,1.904147,27.74903,8.911086,-11.01126,-6.531998,57,60,-0.07977246,4.788288,36.6609,0.1974744,89.83804,1.422436,0.2570746,0.3082113,-0.06824207,-3.873878,-36.74738,-35.31149,9.091581,-27.84032,65.88235,1.08,1200,24,22,0,33.72549,33.72549,0.8503284,16.46379,0.11,5.740458,146.2219,347.2,3.340606,5.45748,189,78,4544,0.97,1.476688,1.1875,1.534272,-0.00390625,0,0,0,0,0,0,0,0,0,0,0,0,12.88,0,0,0,0,0,0,0,0,0,41,40,0,0,0,0,0,0,0,0,0,0,0,0,0,0,0,0,0,0,0,0,0,0,0,0,0,0,0,0,0,0,0,0,0,0,0,0,0,0,0,0,0,0,0,0,0,0,0,0,0,0,0,0,0,0,0,12.9,-0.01604135,0,21.41198,1.350511,0.01939827,5.437229,1.683213,1,5.649714
132.015,35.41816,2.618659,27.75244,-2.924057,-3.530991,3.560379,57,60,-1.110223E-16,6.493059,36.6609,0.2008881,123.5488,1.95619,-0.0637838,-0.4190412,0.2709051,-3.062165,-37.34417,-35.9454,9.303425,-28.03331,66.66666,1.11,1217,24,22,0,32.94118,33.33333,0.8908277,17.16084,0.14,7.894506,145.7682,347.2,4.594134,5.457354,189,78,4544,0.97,1.502552,1.226563,1.474736,-0.00390625,0,0,0,0,0,0,0,0,0,0,0,0,12.88,0,0,0,0,0,0,0,0,0,41,40,0,0,0,0,0,0,0,0,0,0,0,0,0,0,0,0,0,0,0,0,0,0,0,0,0,0,0,0,0,0,0,0,0,0,0,0,0,0,0,0,0,0,0,0,0,0,0,0,0,0,0,0,0,0,0,12.9,-0.01604135,0,21.787,1.378134,0.01973361,5.420357,1.718303,1,5.649714
133.015,36.03953,2.92106,27.75702,6.214172,-2.893082,2.346573,57,60,0.06627519,7.177996,36.6609,0.2054605,135.4401,2.18209,-0.171436,0.348065,0.430076,-2.953247,-36.71736,-35.4782,9.533371,-26.93524,72.15686,1.13,1228,24,22,0,34.11765,33.72549,0.9682921,17.62794,0.16,8.806161,145.5209,347.3,5.036307,5.457279,189,78,4544,0.97,1.47864,1.195313,1.489376,-0.00390625,0,0,0,0,0,0,0,0,0,0,0,0,12.88,0,0,0,0,0,0,0,0,0,41,40,0,0,0,0,0,0,0,0,0,0,0,0,0,0,0,0,0,0,0,0,0,0,0,0,0,0,0,0,0,0,0,0,0,0,0,0,0,0,0,0,0,0,0,0,0,0,0,0,0,0,0,0,0,0,0,12.9,-0.002786309,0,21.44028,1.411897,0.02018276,5.41116,1.7474,1,5.649714
134.015,36.03953,2.92106,27.75702,-0.2022247,11.2048,-8.248123,57,60,0.06627519,7.177996,36.6609,0.2054605,135.4401,2.18209,0.8063797,-0.6155461,-1.191983,-1.885323,-37.35899,-37.11188,10.29014,-27.06134,72.15686,1.13,1228,24,22,0,34.11765,33.72549,0.9682921,17.62794,0.16,8.806161,145.5209,347.2,5.036307,5.457279,189,78,4544,0.97,1.47864,1.195313,1.489376,-0.00390625,0,0,0,0,0,0,0,0,0,0,0,0,12.88,0,0,0,0,0,0,0,0,0,41,40,0,0,0,0,0,0,0,0,0,0,0,0,0,0,0,0,0,0,0,0,0,0,0,0,0,0,0,0,0,0,0,0,0,0,0,0,0,0,0,0,0,0,0,0,0,0,0,0,0,0,0,0,0,0,0,12.9,-0.002786309,0,21.44028,1.411897,0.02018276,5.41116,1.7474,1,5.649714
135.015,36.03953,2.92719,27.76084,10.67581,-4.924911,10.67656,57,60,0.06627519,7.120576,36.6609,0.2092864,135.7243,2.186669,-0.1971123,0.3432243,1.644039,-3.150886,-37.66296,-36.66935,9.330698,-27.16269,68.23529,1.11,1240.5,24,22,0,32.94118,32.94118,0.8884644,17.49221,0.14,8.824638,145.3491,347.3,5.046875,5.457223,189,78,4544,0.97,1.517192,1.25,1.508896,-0.00390625,0,0,0,0,0,0,0,0,0,0,0,0,12.88,0,0,0,0,0,0,0,0,0,41,40,0,0,0,0,0,0,0,0,0,0,0,0,0,0,0,0,0,0,0,0,0,0,0,0,0,0,0,0,0,0,0,0,0,0,0,0,0,0,0,0,0,0,0,0,0,0,0,0,0,0,0,0,0,0,0,12.9,-0.01869223,0,21.99928,1.439888,0.02055859,5.404771,1.777193,1,5.649714
136.015,36.03953,2.92719,27.76084,-5.901932,-7.642105,2.712616,57,60,0.06627519,7.120576,36.6609,0.2092864,135.7243,2.186669,0.545305,0.2906091,-0.05219168,-2.446806,-38.01588,-36.57769,9.59676,-26.26051,68.23529,1.11,1240.5,24,22,0,32.94118,32.94118,0.8884644,17.49221,0.14,8.824638,145.3491,347.3,5.046875,5.457223,189,78,4544,0.97,1.517192,1.25,1.508896,-0.00390625,0,0,0,0,0,0,0,0,0,0,0,0,12.88,0,0,0,0,0,0,0,0,0,41,40,0,0,0,0,0,0,0,0,0,0,0,0,0,0,0,0,0,0,0,0,0,0,0,0,0,0,0,0,0,0,0,0,0,0,0,0,0,0,0,0,0,0,0,0,0,0,0,0,0,0,0,0,0,0,0,12.9,-0.01869223,0,21.99928,1.439888,0.02055859,5.404771,1.777193,1,5.649714
137.015,36.6609,2.955839,27.7648,5.255707,7.639755,-2.665009,57,60,0.07725297,7.124222,36.6609,0.2132443,134.7297,2.20807,-0.4442479,0.03227017,0.6646219,-2.852803,-37.50082,-35.93689,8.858694,-26.83199,74.90196,1.14,1252,24,22,0,35.29412,35.68628,0.9391611,18.13151,0.17,8.911008,145.128,347.2,5.009893,5.457151,189,78,4544,0.97,1.417152,1.085938,1.404952,-0.00390625,0,0,0,0,0,0,0,0,0,0,0,0,12.88,0,0,0,0,0,0,0,0,0,41,40,0,0,0,0,0,0,0,0,0,0,0,0,0,0,0,0,0,0,0,0,0,0,0,0,0,0,0,0,0,0,0,0,0,0,0,0,0,0,0,0,0,0,0,0,0,0,0,0,0,0,0,0,0,0,0,12.9,-0.003241631,0,20.5487,1.469353,0.02094738,5.396552,1.806191,1,5.649714
138.015,36.6609,2.955839,27.7648,-5.290833,-2.999649,5.310669,57,60,0.07725297,7.124222,36.6609,0.2132443,134.7297,2.20807,-0.4196428,-0.3729748,-0.01219698,-3.027438,-37.61203,-36.4859,8.545023,-27.17831,74.90196,1.14,1252,24,22,0,35.29412,35.68628,0.9391611,18.13151,0.17,8.911008,145.128,347.3,5.009893,5.457151,189,78,4544,0.97,1.417152,1.085938,1.404952,-0.00390625,0,0,0,0,0,0,0,0,0,0,0,0,12.88,0,0,0,0,0,0,0,0,0,41,40,0,0,0,0,0,0,0,0,0,0,0,0,0,0,0,0,0,0,0,0,0,0,0,0,0,0,0,0,0,0,0,0,0,0,0,0,0,0,0,0,0,0,0,0,0,0,0,0,0,0,0,0,0,0,0,12.9,-0.003241631,0,20.5487,1.469353,0.02094738,5.396552,1.806191,1,5.649714
139.015,37.28227,3.391513,27.76922,-7.251998,2.894302,-7.474564,57,60,0.1565925,8.023688,37.28227,0.2176677,152.0117,2.533528,0.3473035,-0.3427259,-0.6150691,-2.269721,-37.47608,-36.54737,9.490776,-26.65942,78.03922,1.16,1275.5,24,22,0,35.68628,36.07843,0.9726602,18.79591,0.19,10.22444,145.2542,347.4,5.652518,5.457179,189,78,4544,0.96,1.413248,1.066406,1.430816,-0.00390625,0,0,0,0,0,0,0,0,0,0,0,0,12.88,0,0,0,0,0,0,0,0,0,41,40,0,0,0,0,0,0,0,0,0,0,0,0,0,0,0,0,0,0,0,0,0,0,0,0,0,0,0,0,0,0,0,0,0,0,0,0,0,0,0,0,0,0,0,0,0,0,0,0,0,0,0,0,0,0,0,12.9,0.02861904,0,20.4921,1.498529,0.02138189,5.401245,1.841218,1,5.649714
140.015,37.28227,3.391513,27.76922,-14.77083,3.288544,-8.166579,57,60,0.1565925,8.023688,37.28227,0.2176677,152.0117,2.533528,0.08253581,0.2014002,-1.238379,-3.498566,-37.25996,-35.9788,8.322136,-26.90099,78.03922,1.16,1275.5,24,22,0,35.68628,36.07843,0.9726602,18.79591,0.19,10.22444,145.2542,347.5,5.652518,5.457179,189,78,4544,0.96,1.413248,1.066406,1.430816,-0.00390625,0,0,0,0,0,0,0,0,0,0,0,0,12.88,0,0,0,0,0,0,0,0,0,41,40,0,0,0,0,0,0,0,0,0,0,0,0,0,0,0,0,0,0,0,0,0,0,0,0,0,0,0,0,0,0,0,0,0,0,0,0,0,0,0,0,0,0,0,0,0,0,0,0,0,0,0,0,0,0,0,12.9,0.02861904,0,20.4921,1.498529,0.02138189,5.401245,1.841218,1,5.649714
141.015,37.28227,3.323425,27.77444,5.625748,-1.024963,6.612549,57,60,0.0793395,7.831903,37.28227,0.2228832,148.9599,2.482664,-0.6818964,0.8728153,1.689725,-2.79579,-38.11478,-36.73569,8.586649,-25.92767,67.45098,1.13,1280.5,24,22,0,33.33333,33.33333,0.8979614,18.38158,0.17,10.01917,145.3524,347.6,5.539038,5.457199,189,78,4544,0.96,1.494744,1.210938,1.489864,-0.00390625,0,0,0,0,0,0,0,0,0,0,0,0,12.88,0,0,0,0,0,0,0,0,0,41,40,0,0,0,0,0,0,0,0,0,0,0,0,0,0,0,0,0,0,0,0,0,0,0,0,0,0,0,0,0,0,0,0,0,0,0,0,0,0,0,0,0,0,0,0,0,0,0,0,0,0,0,0,0,0,0,12.9,0.02861904,0,21.67379,1.533399,0.02189423,5.404894,1.870259,1,5.649714
142.015,37.28227,3.323425,27.77444,-4.145889,-3.108109,-1.756897,57,60,0.0793395,7.831903,37.28227,0.2228832,148.9599,2.482664,-0.08086713,-0.1856756,-0.3214955,-3.546067,-37.42017,-36.35673,9.412254,-26.24968,67.45098,1.13,1280.5,24,22,0,33.33333,33.33333,0.8979614,18.38158,0.17,10.01917,145.3524,347.8,5.539038,5.457199,189,78,4544,0.96,1.494744,1.210938,1.489864,-0.00390625,0,0,0,0,0,0,0,0,0,0,0,0,12.88,0,0,0,0,0,0,0,0,0,41,40,0,0,0,0,0,0,0,0,0,0,0,0,0,0,0,0,0,0,0,0,0,0,0,0,0,0,0,0,0,0,0,0,0,0,0,0,0,0,0,0,0,0,0,0,0,0,0,0,0,0,0,0,0,0,0,12.9,0.02861904,0,21.67379,1.533399,0.02189423,5.404894,1.870259,1,5.649714
143.015,37.90364,2.834998,27.77812,-3.593933,15.52069,-6.537613,57,60,0.07976013,6.709707,37.90364,0.2265682,124.9849,2.1178,-0.6248862,0.3929934,-0.5878378,-5.325612,-35.97708,-34.73819,7.187,-26.01859,67.45098,1.11,1275,24,22,0,30.58824,29.41176,0.8827749,17.97869,0.15,8.546706,144.9661,347.9,4.647534,5.457072,189,78,4544,0.96,1.608936,1.394531,1.602104,-0.00390625,0,0,0,0,0,0,0,0,0,0,0,0,12.88,0,0,0,0,0,0,0,0,0,41,40,0,0,0,0,0,0,0,0,0,0,0,0,0,0,0,0,0,0,0,0,0,0,0,0,0,0,0,0,0,0,0,0,0,0,0,0,0,0,0,0,0,0,0,0,0,0,0,0,0,0,0,0,0,0,0,12.9,0.04457106,0,23.32957,1.562905,0.02225621,5.390529,1.900373,1,5.649714
144.015,37.28227,2.493455,27.78152,-0.7200317,6.825577,-4.321716,57,60,0.003838017,5.931604,37.90364,0.2299611,111.7596,1.862661,-0.2828186,-0.8518398,0.7521791,-3.277061,-38.16343,-36.20511,9.503315,-25.41801,63.52941,1.05,1268.5,24,22,0,30.98039,30.98039,0.7797732,16.92017,0.09,7.517054,144.3215,347.9,4.155756,5.456859,189,78,4544,0.96,1.582096,1.34375,1.564528,-0.00390625,0,0,0,0,0,0,0,0,0,0,0,0,12.88,0,0,0,0,0,0,0,0,0,41,40,0,0,0,0,0,0,0,0,0,0,0,0,0,0,0,0,0,0,0,0,0,0,0,0,0,0,0,0,0,0,0,0,0,0,0,0,0,0,0,0,0,0,0,0,0,0,0,0,0,0,0,0,0,0,0,12.9,0.02938664,0,22.94039,1.593394,0.0225895,5.366563,1.930135,1,5.649714
145.015,37.28227,2.493455,27.78152,-4.430588,-4.637726,4.962769,57,60,0.003838017,5.931604,37.90364,0.2299611,111.7596,1.862661,0.3539346,0.5370703,0.7595589,-2.210651,-38.57158,-36.54963,10.09777,-25.64311,63.52941,1.05,1268.5,24,22,0,30.98039,30.98039,0.7797732,16.92017,0.09,7.517054,144.3215,348,4.155756,5.456859,189,78,4544,0.96,1.582096,1.34375,1.564528,-0.00390625,0,0,0,0,0,0,0,0,0,0,0,0,12.88,0,0,0,0,0,0,0,0,0,41,40,0,0,0,0,0,0,0,0,0,0,0,0,0,0,0,0,0,0,0,0,0,0,0,0,0,0,0,0,0,0,0,0,0,0,0,0,0,0,0,0,0,0,0,0,0,0,0,0,0,0,0,0,0,0,0,12.9,0.02938664,0,22.94039,1.593394,0.0225895,5.366563,1.930135,1,5.649714
146.015,37.28227,2.493455,27.78152,-1.702194,4.042007,4.099319,57,60,0.003838017,5.931604,37.90364,0.2299611,111.7596,1.862661,0.2918673,0.1974586,-0.5645605,-0.8500916,-38.58025,-37.70725,10.65165,-25.86906,63.52941,1.05,1268.5,24,22,0,30.98039,30.98039,0.7797732,16.92017,0.09,7.517054,144.3215,348.1,4.155756,5.456859,189,78,4544,0.96,1.582096,1.34375,1.564528,-0.00390625,0,0,0,0,0,0,0,0,0,0,0,0,12.88,0,0,0,0,0,0,0,0,0,41,40,0,0,0,0,0,0,0,0,0,0,0,0,0,0,0,0,0,0,0,0,0,0,0,0,0,0,0,0,0,0,0,0,0,0,0,0,0,0,0,0,0,0,0,0,0,0,0,0,0,0,0,0,0,0,0,12.9,0.02938664,0,22.94039,1.593394,0.0225895,5.366563,1.930135,1,5.649714
147.015,37.28227,2.891447,27.78535,5.346527,0.32901,-0.859375,57,57,-0.07592211,6.83259,37.90364,0.2337914,129.5981,2.159968,0.8788227,-0.5829003,-0.6083472,-0.7269005,-39.53107,-38.57181,11.36254,-26.37085,74.90196,1.12,1277,24,22,0,34.90196,35.29412,0.9649728,18.16912,0.16,8.716885,144.0511,348.3,4.819075,5.456759,209,78,4544,0.97,1.391776,1.03125,1.38592,-0.00390625,0,0,0,0,0,0,0,0,0,0,0,0,12.88,0,0,0,0,0,0,0,0,0,46,41,0,0,0,0,0,0,0,0,0,0,0,0,0,0,0,0,0,0,0,0,0,0,0,0,0,0,0,0,0,0,0,0,0,0,0,0,0,0,0,0,0,0,0,0,0,0,0,0,0,0,0,0,0,0,0,12.9,0.04534114,0,20.18075,1.622976,0.02296576,5.356505,1.982672,1,5.649714
148.015,37.28227,2.891447,27.78535,10.66922,-3.044189,0.3828735,57,57,-0.07592211,6.83259,37.90364,0.2337914,129.5981,2.159968,-0.1075448,0.06513239,1.233882,-1.447624,-39.32827,-38.00021,11.30349,-26.92308,74.90196,1.12,1277,24,22,0,34.90196,35.29412,0.9649728,18.16912,0.16,8.716885,144.0511,348.4,4.819075,5.456759,209,78,4544,0.97,1.391776,1.03125,1.38592,-0.00390625,0,0,0,0,0,0,0,0,0,0,0,0,12.88,0,0,0,0,0,0,0,0,0,46,41,0,0,0,0,0,0,0,0,0,0,0,0,0,0,0,0,0,0,0,0,0,0,0,0,0,0,0,0,0,0,0,0,0,0,0,0,0,0,0,0,0,0,0,0,0,0,0,0,0,0,0,0,0,0,0,12.9,0.04534114,0,20.18075,1.622976,0.02296576,5.356505,1.982672,1,5.649714
149.015,37.90364,3.470437,27.79351,-1.895355,-9.302612,7.979157,57,57,0.04407681,8.034041,37.90364,0.2419588,152.9991,2.592485,-0.4048687,0.3108523,0.8701643,-1.004807,-39.18108,-37.67389,11.86996,-27.37007,85.09804,1.17,1303.5,24,22,0,38.82353,38.82353,0.9758098,19.37411,0.2,10.46237,144.335,348.6,5.689236,5.456824,209,78,4544,0.97,1.284416,0.8203125,1.27368,-0.00390625,0,0,0,0,0,0,0,0,0,0,0,0,12.88,0,0,0,0,0,0,0,0,0,46,41,0,0,0,0,0,0,0,0,0,0,0,0,0,0,0,0,0,0,0,0,0,0,0,0,0,0,0,0,0,0,0,0,0,0,0,0,0,0,0,0,0,0,0,0,0,0,0,0,0,0,0,0,0,0,0,12.9,0.0541565,0,18.62403,1.676369,0.02376805,5.367064,2.011765,1,5.649714
150.015,37.90364,3.470437,27.79351,9.752365,1.042099,12.99965,57,57,0.04407681,8.034041,37.90364,0.2419588,152.9991,2.592485,-0.6599544,0.2384281,1.782023,-2.228818,-37.78589,-36.5219,11.78868,-29.59222,85.09804,1.17,1303.5,24,22,0,38.82353,38.82353,0.9758098,19.37411,0.2,10.46237,144.335,348.7,5.689236,5.456824,209,78,4544,0.97,1.284416,0.8203125,1.27368,-0.00390625,0,0,0,0,0,0,0,0,0,0,0,0,12.88,0,0,0,0,0,0,0,0,0,46,41,0,0,0,0,0,0,0,0,0,0,0,0,0,0,0,0,0,0,0,0,0,0,0,0,0,0,0,0,0,0,0,0,0,0,0,0,0,0,0,0,0,0,0,0,0,0,0,0,0,0,0,0,0,0,0,12.9,0.0541565,0,18.62403,1.676369,0.02376805,5.367064,2.011765,1,5.649714
151.015,38.52501,4.356316,27.79917,9.181488,-2.177429,1.677429,57,57,0.1240361,9.958787,38.52501,0.2476128,188.9567,3.254254,0.7038772,-1.01061,-0.07421338,-1.841575,-38.16745,-36.81929,12.82812,-29.55006,87.45098,1.22,1320,24,22,0,39.60784,39.60784,1.056219,20.45778,0.25,13.13304,145.1181,349,7.026311,5.457072,209,78,4544,0.97,1.29564,0.8398438,1.291248,-0.00390625,0,0,0,0,0,0,0,0,0,0,0,0,12.88,0,0,0,0,0,0,0,0,0,46,41,0,0,0,0,0,0,0,0,0,0,0,0,0,0,0,0,0,0,0,0,0,0,0,0,0,0,0,0,0,0,0,0,0,0,0,0,0,0,0,0,0,0,0,0,0,0,0,0,0,0,0,0,0,0,0,12.9,0.07014836,0,18.78678,1.706284,0.02432345,5.396184,2.042564,1,5.649714
152.015,38.52501,4.356316,27.79917,-14.31372,-24.09625,-14.75081,57,57,0.1240361,9.958787,38.52501,0.2476128,188.9567,3.254254,0.7754553,-0.8740017,0.1507084,4.319469,-46.04793,-40.01997,19.55606,-22.56917,87.45098,1.22,1320,24,22,0,39.60784,39.60784,1.056219,20.45778,0.25,13.13304,145.1181,349.1,7.026311,5.457072,209,78,4544,0.97,1.29564,0.8398438,1.291248,-0.00390625,0,0,0,0,0,0,0,0,0,0,0,0,12.88,0,0,0,0,0,0,0,0,0,46,41,0,0,0,0,0,0,0,0,0,0,0,0,0,0,0,0,0,0,0,0,0,0,0,0,0,0,0,0,0,0,0,0,0,0,0,0,0,0,0,0,0,0,0,0,0,0,0,0,0,0,0,0,0,0,0,12.9,0.07014836,0,18.78678,1.706284,0.02432345,5.396184,2.042564,1,5.649714
153.015,39.14639,4.348786,27.80511,24.43872,27.26666,-17.73506,57,57,0.1559147,9.778598,39.14639,0.253553,185.636,3.24863,-0.2987517,-0.8351788,-0.7036558,4.678846,-46.98829,-40.00747,22.42671,-22.65524,79.21568,1.2,1342,24,22,0,36.86274,36.86274,1.013199,20.45778,0.23,13.11034,145.864,349.1,6.90283,5.457316,209,78,4544,0.96,1.465464,1.164063,1.53964,-0.00390625,0,0,0,0,0,0,0,0,0,0,0,0,12.88,0,0,0,0,0,0,0,0,0,46,41,0,0,0,0,0,0,0,0,0,0,0,0,0,0,0,0,0,0,0,0,0,0,0,0,0,0,0,0,0,0,0,0,0,0,0,0,0,0,0,0,0,0,0,0,0,0,0,0,0,0,0,0,0,0,0,12.9,0.0720844,0,21.24923,1.738284,0.02490697,5.423918,2.071356,1,5.649714
154.015,39.14639,4.348786,27.80511,-17.34328,-11.32976,-0.6428528,57,57,0.1559147,9.778598,39.14639,0.253553,185.636,3.24863,-0.7344567,0.9607428,1.428391,-0.8952993,-40.4752,-37.35105,16.22962,-29.41029,79.21568,1.2,1342,24,22,0,36.86274,36.86274,1.013199,20.45778,0.23,13.11034,145.864,349.2,6.90283,5.457316,209,78,4544,0.96,1.465464,1.164063,1.53964,-0.00390625,0,0,0,0,0,0,0,0,0,0,0,0,12.88,0,0,0,0,0,0,0,0,0,46,41,0,0,0,0,0,0,0,0,0,0,0,0,0,0,0,0,0,0,0,0,0,0,0,0,0,0,0,0,0,0,0,0,0,0,0,0,0,0,0,0,0,0,0,0,0,0,0,0,0,0,0,0,0,0,0,12.9,0.0720844,0,21.24923,1.738284,0.02490697,5.423918,2.071356,1,5.649714
155.015,39.76776,2.884308,27.80887,1.791428,3.174103,-9.97377,57,57,0.1558236,6.50013,39.76776,0.2573161,121.1982,2.154635,0.5797238,-0.418511,-1.804209,-0.3465004,-39.16395,-37.48019,16.52257,-29.60513,62.7451,1.08,1339,24,22,0,32.15686,35.68628,0.7296978,18.37085,0.12,8.695361,145.4422,349.2,4.506727,5.457164,209,78,4544,0.96,1.33224,0.9140625,1.351272,-0.00390625,0,0,0,0,0,0,0,0,0,0,0,0,12.88,0,0,0,0,0,0,0,0,0,46,41,0,0,0,0,0,0,0,0,0,0,0,0,0,0,0,0,0,0,0,0,0,0,0,0,0,0,0,0,0,0,0,0,0,0,0,0,0,0,0,0,0,0,0,0,0,0,0,0,0,0,0,0,0,0,0,12.9,0.08805803,0,19.31748,1.769199,0.02527664,5.408234,2.106344,1,5.649714
156.015,39.76776,2.884308,27.80887,9.289962,7.839371,-1.629318,57,57,0.1558236,6.50013,39.76776,0.2573161,121.1982,2.154635,-0.3871484,-1.058474,0.2417339,-1.906489,-38.48232,-35.90627,15.4549,-31.47659,62.7451,1.08,1339,24,22,0,32.15686,35.68628,0.7296978,18.37085,0.12,8.695361,145.4422,349.3,4.506727,5.457164,209,78,4544,0.96,1.33224,0.9140625,1.351272,-0.00390625,0,0,0,0,0,0,0,0,0,0,0,0,12.88,0,0,0,0,0,0,0,0,0,46,41,0,0,0,0,0,0,0,0,0,0,0,0,0,0,0,0,0,0,0,0,0,0,0,0,0,0,0,0,0,0,0,0,0,0,0,0,0,0,0,0,0,0,0,0,0,0,0,0,0,0,0,0,0,0,0,12.9,0.08805803,0,19.31748,1.769199,0.02527664,5.408234,2.106344,1,5.649714
157.015,39.76776,2.712503,27.81311,-10.36244,-6.687576,3.052048,57,57,0.0798682,6.034086,39.76776,0.2615597,113.979,2.026294,0.4753681,0.09189984,-0.1204972,-3.154939,-38.23609,-35.48069,15.51018,-32.64857,72.94118,1.13,1356.5,24,22,0,34.90196,34.90196,0.8683105,19.47256,0.17,8.177421,144.7875,349.3,4.238284,5.456923,209,78,4544,0.96,1.405928,1.058594,1.428864,-0.00390625,0,0,0,0,0,0,0,0,0,0,0,0,12.88,0,0,0,0,0,0,0,0,0,46,41,0,0,0,0,0,0,0,0,0,0,0,0,0,0,0,0,0,0,0,0,0,0,0,0,0,0,0,0,0,0,0,0,0,0,0,0,0,0,0,0,0,0,0,0,0,0,0,0,0,0,0,0,0,0,0,12.9,0.07260744,0,20.38596,1.806507,0.02569349,5.383891,2.135425,1,5.649714
158.015,39.76776,3.266436,27.81737,-3.407654,3.001984,-0.7609253,57,57,-1.110223E-16,7.2158,39.76776,0.2658173,137.2552,2.440093,0.6403129,-0.1046767,-1.083936,-4.712587,-37.63744,-34.31077,14.45986,-33.20937,70.58823,1.13,1366,24,22,0,34.5098,34.5098,0.8878647,19.60893,0.17,9.84737,144.6564,349.3,5.103803,5.456863,209,78,4544,0.96,1.456192,1.144531,1.599664,-0.00390625,0,0,0,0,0,0,0,0,0,0,0,0,12.88,0,0,0,0,0,0,0,0,0,46,41,0,0,0,0,0,0,0,0,0,0,0,0,0,0,0,0,0,0,0,0,0,0,0,0,0,0,0,0,0,0,0,0,0,0,0,0,0,0,0,0,0,0,0,0,0,0,0,0,0,0,0,0,0,0,0,12.9,0.05673954,0,21.11478,1.837576,0.02611171,5.379016,2.165606,1,5.649714
159.015,39.76776,3.266436,27.81737,-1.050995,-4.632828,10.9007,57,57,-1.110223E-16,7.2158,39.76776,0.2658173,137.2552,2.440093,0.2273198,0.4161317,0.6120539,-4.29599,-37.83499,-34.47137,15.52624,-33.37003,70.58823,1.13,1366,24,22,0,34.5098,34.5098,0.8878647,19.60893,0.17,9.84737,144.6564,349.4,5.103803,5.456863,209,78,4544,0.96,1.456192,1.144531,1.599664,-0.00390625,0,0,0,0,0,0,0,0,0,0,0,0,12.88,0,0,0,0,0,0,0,0,0,46,41,0,0,0,0,0,0,0,0,0,0,0,0,0,0,0,0,0,0,0,0,0,0,0,0,0,0,0,0,0,0,0,0,0,0,0,0,0,0,0,0,0,0,0,0,0,0,0,0,0,0,0,0,0,0,0,12.9,0.05673954,0,21.11478,1.837576,0.02611171,5.379016,2.165606,1,5.649714
160.015,40.38913,3.3904,27.82193,-1.371674,-5.888031,-1.342346,57,57,0.07723172,8.888666,40.38913,0.2703717,140.2724,2.532696,0.08217006,-0.2944613,-0.2357119,-3.879911,-37.63093,-34.06259,16.7544,-33.83679,99.21568,1.15,1151,24,22,0,37.64706,38.03922,0.9456557,16.81504,0.19,10.22108,144.5802,349.4,5.215996,5.456822,209,78,4544,0.96,1.233664,0.6875,1.218536,-0.00390625,0,0,0,0,0,0,0,0,0,0,0,0,12.88,0,0,0,0,0,0,0,0,0,46,41,0,0,0,0,0,0,0,0,0,0,0,0,0,0,0,0,0,0,0,0,0,0,0,0,0,0,0,0,0,0,0,0,0,0,0,0,0,0,0,0,0,0,0,0,0,0,0,0,0,0,0,0,0,0,0,12.9,0.07218589,0,17.88813,1.870046,0.02655911,5.376182,2.194702,1,5.649714
161.015,40.38913,3.3904,27.82193,-2.405548,-0.5552979,-4.984283,57,57,0.07723172,8.888666,40.38913,0.2703717,140.2724,2.532696,0.1843074,0.05790477,-1.07415,-4.322527,-36.87994,-34.14803,15.96048,-33.55917,99.21568,1.15,1151,24,22,0,37.64706,38.03922,0.9456557,16.81504,0.19,10.22108,144.5802,349.5,5.215996,5.456822,209,78,4544,0.96,1.233664,0.6875,1.218536,-0.00390625,0,0,0,0,0,0,0,0,0,0,0,0,12.88,0,0,0,0,0,0,0,0,0,46,41,0,0,0,0,0,0,0,0,0,0,0,0,0,0,0,0,0,0,0,0,0,0,0,0,0,0,0,0,0,0,0,0,0,0,0,0,0,0,0,0,0,0,0,0,0,0,0,0,0,0,0,0,0,0,0,12.9,0.07218589,0,17.88813,1.870046,0.02655911,5.376182,2.194702,1,5.649714
162.015,41.0105,3.926151,27.82713,8.705383,8.337372,-5.681839,57,57,0.1560338,10.31117,41.0105,0.2755722,159.9771,2.932913,-0.0341857,-0.4537506,-0.216205,-5.631411,-36.59716,-33.47361,15.11873,-33.66302,82.74509,1.15,1149,23,22,0,32.54902,31.76471,0.9246482,16.78583,0.19,11.83622,144.8581,349.4,5.948709,5.456912,209,78,4544,0.96,1.42496,1.089844,1.390312,-0.00390625,0,0,0,0,0,0,0,0,0,0,0,0,12.88,0,0,0,0,0,0,0,0,0,46,41,0,0,0,0,0,0,0,0,0,0,0,0,0,0,0,0,0,0,0,0,0,0,0,0,0,0,0,0,0,0,0,0,0,0,0,0,0,0,0,0,0,0,0,0,0,0,0,0,0,0,0,0,0,0,0,12.9,0.07199428,0,20.66192,1.902359,0.02706995,5.386516,2.229803,1,5.649714
163.015,41.0105,3.926151,27.82713,1.586609,3.622833,-6.110687,57,57,0.1560338,10.31117,41.0105,0.2755722,159.9771,2.932913,-0.2198629,-0.2350539,-0.5347919,-6.006044,-36.67127,-32.99985,14.81763,-33.76108,82.74509,1.15,1149,23,22,0,32.54902,31.76471,0.9246482,16.78583,0.19,11.83622,144.8581,349.4,5.948709,5.456912,209,78,4544,0.96,1.42496,1.089844,1.390312,-0.00390625,0,0,0,0,0,0,0,0,0,0,0,0,12.88,0,0,0,0,0,0,0,0,0,46,41,0,0,0,0,0,0,0,0,0,0,0,0,0,0,0,0,0,0,0,0,0,0,0,0,0,0,0,0,0,0,0,0,0,0,0,0,0,0,0,0,0,0,0,0,0,0,0,0,0,0,0,0,0,0,0,12.9,0.07199428,0,20.66192,1.902359,0.02706995,5.386516,2.229803,1,5.649714
164.015,41.0105,2.964379,27.83176,18.1409,-1.874436,-0.5746307,57,57,0.0788021,7.95491,41.0105,0.2802092,120.7882,2.21445,-0.06341373,-0.3175704,1.025575,-5.285567,-36.46184,-33.05503,15.31153,-33.59348,69.80392,1.05,1124.5,23,22,0,30.98039,30.98039,0.8357426,15.05004,0.09,8.936753,144.3669,349.4,4.491479,5.456711,209,78,4544,0.96,1.465464,1.128906,1.424472,-0.00390625,0,0,0,0,0,0,0,0,0,0,0,0,12.88,0,0,0,0,0,0,0,0,0,46,41,0,0,0,0,0,0,0,0,0,0,0,0,0,0,0,0,0,0,0,0,0,0,0,0,0,0,0,0,0,0,0,0,0,0,0,0,0,0,0,0,0,0,0,0,0,0,0,0,0,0,0,0,0,0,0,12.9,0.08717871,0,21.24923,1.940952,0.02752546,5.368249,2.258832,1,5.649714
165.015,41.0105,2.964379,27.83176,-1.242905,-6.54895,2.168106,57,57,0.0788021,7.95491,41.0105,0.2802092,120.7882,2.21445,0.1812941,-0.370554,0.8068483,-5.649016,-37.43423,-32.49704,16.07159,-33.00995,69.80392,1.05,1124.5,23,22,0,30.98039,30.98039,0.8357426,15.05004,0.09,8.936753,144.3669,349.4,4.491479,5.456711,209,78,4544,0.96,1.465464,1.128906,1.424472,-0.00390625,0,0,0,0,0,0,0,0,0,0,0,0,12.88,0,0,0,0,0,0,0,0,0,46,41,0,0,0,0,0,0,0,0,0,0,0,0,0,0,0,0,0,0,0,0,0,0,0,0,0,0,0,0,0,0,0,0,0,0,0,0,0,0,0,0,0,0,0,0,0,0,0,0,0,0,0,0,0,0,0,12.9,0.08717871,0,21.24923,1.940952,0.02752546,5.368249,2.258832,1,5.649714
166.015,41.0105,2.81335,27.83544,14.09377,12.25128,-1.427994,57,57,-9.714451E-17,7.369403,41.0105,0.2838828,114.6343,2.101628,-0.5259289,-0.6741698,1.301029,-4.146264,-36.79128,-34.0506,16.89526,-33.24149,73.72549,1.1,1152,23,22,0,33.33333,33.33333,0.9606952,16.15229,0.14,8.481444,143.899,349.5,4.262648,5.456515,228,78,4544,0.96,1.487424,1.207031,1.521584,-0.00390625,0,0,0,0,0,0,0,0,0,0,0,0,12.88,0,0,0,0,0,0,0,0,0,47,42,0,0,0,0,0,0,0,0,0,0,0,0,0,0,0,0,0,0,0,0,0,0,0,0,0,0,0,0,0,0,0,0,0,0,0,0,0,0,0,0,0,0,0,0,0,0,0,0,0,0,0,0,0,0,0,12.9,0.08717871,0,21.56765,1.972792,0.02788632,5.35085,2.296298,1,5.649714
167.015,41.0105,2.81335,27.83544,-7.979171,3.39238,-7.791092,57,57,-9.714451E-17,7.369403,41.0105,0.2838828,114.6343,2.101628,0.199889,0.07186568,-0.2737314,-5.172819,-37.63366,-32.73654,16.82849,-33.54015,73.72549,1.1,1152,23,22,0,33.33333,33.33333,0.9606952,16.15229,0.14,8.481444,143.899,349.5,4.262648,5.456515,228,78,4544,0.96,1.487424,1.207031,1.521584,-0.00390625,0,0,0,0,0,0,0,0,0,0,0,0,12.88,0,0,0,0,0,0,0,0,0,47,42,0,0,0,0,0,0,0,0,0,0,0,0,0,0,0,0,0,0,0,0,0,0,0,0,0,0,0,0,0,0,0,0,0,0,0,0,0,0,0,0,0,0,0,0,0,0,0,0,0,0,0,0,0,0,0,12.9,0.08717871,0,21.56765,1.972792,0.02788632,5.35085,2.296298,1,5.649714
168.015,41.63187,2.677931,27.83993,3.072754,10.63933,-9.821762,57,57,0.06152404,7.051408,41.63187,0.2883765,107.4878,2.000468,-0.3440973,-0.08194728,-0.5261241,-6.449675,-36.79902,-32.00596,15.36494,-33.50482,56.47059,1.08,1146,23,22,0,27.84314,27.45098,0.8451435,15.77601,0.12,8.073196,143.1286,349.5,3.99691,5.456188,228,78,4544,0.96,1.619184,1.398438,1.699704,-0.00390625,0,0,0,0,0,0,0,0,0,0,0,0,12.88,0,0,0,0,0,0,0,0,0,47,42,0,0,0,0,0,0,0,0,0,0,0,0,0,0,0,0,0,0,0,0,0,0,0,0,0,0,0,0,0,0,0,0,0,0,0,0,0,0,0,0,0,0,0,0,0,0,0,0,0,0,0,0,0,0,0,12.9,0.09066815,0,23.47817,2.014806,0.02832775,5.322205,2.325433,1,5.649714
169.015,41.63187,2.677931,27.83993,8.239655,4.645004,3.000549,57,57,0.06152404,7.051408,41.63187,0.2883765,107.4878,2.000468,-1.213104,-0.3958526,0.9377873,-7.315165,-37.14162,-32.2202,14.19358,-33.43028,56.47059,1.08,1146,23,22,0,27.84314,27.45098,0.8451435,15.77601,0.12,8.073196,143.1286,349.6,3.99691,5.456188,228,78,4544,0.96,1.619184,1.398438,1.699704,-0.00390625,0,0,0,0,0,0,0,0,0,0,0,0,12.88,0,0,0,0,0,0,0,0,0,47,42,0,0,0,0,0,0,0,0,0,0,0,0,0,0,0,0,0,0,0,0,0,0,0,0,0,0,0,0,0,0,0,0,0,0,0,0,0,0,0,0,0,0,0,0,0,0,0,0,0,0,0,0,0,0,0,12.9,0.09066815,0,23.47817,2.014806,0.02832775,5.322205,2.325433,1,5.649714
170.015,41.0105,1.826394,27.84231,4.955795,-0.1018219,-2.641739,57,57,-0.01822667,4.86436,41.63187,0.2907519,74.41925,1.364353,0.2377454,-0.6389397,-0.9455015,-6.832165,-36.09158,-31.95171,13.83046,-33.94301,57.2549,1.05,1133,23,22,0,27.84314,27.84314,0.756465,15.1638,0.09,5.506056,142.0565,349.5,2.767262,5.455735,228,78,4544,0.96,1.6348,1.425781,1.697752,-0.00390625,0,0,0,0,0,0,0,0,0,0,0,0,12.88,0,0,0,0,0,0,0,0,0,47,42,0,0,0,0,0,0,0,0,0,0,0,0,0,0,0,0,0,0,0,0,0,0,0,0,0,0,0,0,0,0,0,0,0,0,0,0,0,0,0,0,0,0,0,0,0,0,0,0,0,0,0,0,0,0,0,12.9,0.05872615,0,23.7046,2.046735,0.02856109,5.282338,2.360432,1,5.649714
171.015,41.0105,1.826394,27.84231,8.624619,-0.9941559,11.64323,57,57,-0.01822667,4.86436,41.63187,0.2907519,74.41925,1.364353,0.02781797,0.1274888,1.600414,-4.957074,-37.22558,-32.69309,15.8228,-33.10709,57.2549,1.05,1133,23,22,0,27.84314,27.84314,0.756465,15.1638,0.09,5.506056,142.0565,349.6,2.767262,5.455735,228,78,4544,0.96,1.6348,1.425781,1.697752,-0.00390625,0,0,0,0,0,0,0,0,0,0,0,0,12.88,0,0,0,0,0,0,0,0,0,47,42,0,0,0,0,0,0,0,0,0,0,0,0,0,0,0,0,0,0,0,0,0,0,0,0,0,0,0,0,0,0,0,0,0,0,0,0,0,0,0,0,0,0,0,0,0,0,0,0,0,0,0,0,0,0,0,12.9,0.05872615,0,23.7046,2.046735,0.02856109,5.282338,2.360432,1,5.649714
172.015,41.0105,1.875222,27.84529,-6.758392,-3.822617,7.071701,57,57,-0.07975071,5.068215,41.63187,0.2937376,76.40881,1.400828,-0.561474,0.1894234,0.7315661,-5.534045,-37.28226,-31.85767,15.80943,-33.64278,53.72549,1.05,1116.5,23,22,0,25.4902,25.4902,0.7748387,14.94297,0.09,5.653258,140.8408,349.6,2.841244,5.455203,228,78,4544,0.96,1.702632,1.519531,1.748504,-0.00390625,0,0,0,0,0,0,0,0,0,0,0,0,12.88,0,0,0,0,0,0,0,0,0,47,42,0,0,0,0,0,0,0,0,0,0,0,0,0,0,0,0,0,0,0,0,0,0,0,0,0,0,0,0,0,0,0,0,0,0,0,0,0,0,0,0,0,0,0,0,0,0,0,0,0,0,0,0,0,0,0,12.9,0.04353507,0,24.68816,2.085599,0.02885438,5.237134,2.389801,1,5.649714
173.015,41.0105,1.875222,27.84529,3.059052,-0.7250977,-1.883255,57,57,-0.07975071,5.068215,41.63187,0.2937376,76.40881,1.400828,0.3753866,0.1576116,0.2062799,-3.459483,-37.33453,-32.51989,18.84006,-31.46442,53.72549,1.05,1116.5,23,22,0,25.4902,25.4902,0.7748387,14.94297,0.09,5.653258,140.8408,349.7,2.841244,5.455203,228,78,4544,0.96,1.702632,1.519531,1.748504,-0.00390625,0,0,0,0,0,0,0,0,0,0,0,0,12.88,0,0,0,0,0,0,0,0,0,47,42,0,0,0,0,0,0,0,0,0,0,0,0,0,0,0,0,0,0,0,0,0,0,0,0,0,0,0,0,0,0,0,0,0,0,0,0,0,0,0,0,0,0,0,0,0,0,0,0,0,0,0,0,0,0,0,12.9,0.04353507,0,24.68816,2.085599,0.02885438,5.237134,2.389801,1,5.649714
174.015,40.38913,1.671566,27.84746,12.56375,-0.3294067,-0.2424164,57,57,-0.07947635,4.564807,41.63187,0.2959062,69.15839,1.248693,0.1958169,-0.5321683,1.021511,-4.570671,-38.0521,-33.71469,16.4241,-32.9852,54.5098,1.04,1105,23,22,0,25.88235,25.88235,0.74694,14.64821,0.08,5.039294,139.7661,350,2.571639,5.454721,228,78,4544,0.96,1.750456,1.574219,1.81048,-0.00390625,0,0,0,0,0,0,0,0,0,0,0,0,12.88,0,0,0,0,0,0,0,0,0,47,42,0,0,0,0,0,0,0,0,0,0,0,0,0,0,0,0,0,0,0,0,0,0,0,0,0,0,0,0,0,0,0,0,0,0,0,0,0,0,0,0,0,0,0,0,0,0,0,0,0,0,0,0,0,0,0,13,0.01166616,0,25.38161,2.117152,0.02906741,5.197171,2.420005,1,5.649714
175.015,39.76776,1.55876,27.84957,8.08165,8.25737,-8.868866,57,57,-0.1567909,4.307424,41.63187,0.2980104,65.49887,1.164424,-0.07816317,-0.4888061,1.045542,-2.971269,-37.90682,-33.89267,17.62949,-33.04256,46.66667,1.04,1092,23,22,0,22.35294,21.56863,0.6936549,14.47587,0.08,4.699214,138.6683,350,2.43556,5.454216,228,78,4544,0.96,1.92272,1.746094,1.707512,-0.00390625,0,0,0,0,0,0,0,0,0,0,0,0,12.88,0,0,0,0,0,0,0,0,0,47,42,0,0,0,0,0,0,0,0,0,0,0,0,0,0,0,0,0,0,0,0,0,0,0,0,0,0,0,0,0,0,0,0,0,0,0,0,0,0,0,0,0,0,0,0,0,0,0,0,0,0,0,0,0,0,0,13,-0.00379675,0,27.87944,2.149089,0.02927411,5.156348,2.44875,1,5.649714
176.015,39.76776,1.55876,27.84957,-6.372498,-5.846085,-0.8084564,57,57,-0.1567909,4.307424,41.63187,0.2980104,65.49887,1.164424,0.8693255,-0.5301414,-1.517893,-4.090098,-37.4972,-33.80511,16.19784,-33.53091,46.66667,1.04,1092,23,22,0,22.35294,21.56863,0.6936549,14.47587,0.08,4.699214,138.6683,350.2,2.43556,5.454216,228,78,4544,0.96,1.92272,1.746094,1.707512,-0.00390625,0,0,0,0,0,0,0,0,0,0,0,0,12.88,0,0,0,0,0,0,0,0,0,47,42,0,0,0,0,0,0,0,0,0,0,0,0,0,0,0,0,0,0,0,0,0,0,0,0,0,0,0,0,0,0,0,0,0,0,0,0,0,0,0,0,0,0,0,0,0,0,0,0,0,0,0,0,0,0,0,13,-0.00379675,0,27.87944,2.149089,0.02927411,5.156348,2.44875,1,5.649714
177.015,39.76776,1.55876,27.84957,1.517899,3.006927,-3.107178,57,57,-0.1567909,4.307424,41.63187,0.2980104,65.49887,1.164424,-0.2156817,-0.01976461,-0.5866783,-5.454551,-37.05131,-32.43465,14.88176,-33.966,46.66667,1.04,1092,23,22,0,22.35294,21.56863,0.6936549,14.47587,0.08,4.699214,138.6683,350.2,2.43556,5.454216,228,78,4544,0.96,1.92272,1.746094,1.707512,-0.00390625,0,0,0,0,0,0,0,0,0,0,0,0,12.88,0,0,0,0,0,0,0,0,0,47,42,0,0,0,0,0,0,0,0,0,0,0,0,0,0,0,0,0,0,0,0,0,0,0,0,0,0,0,0,0,0,0,0,0,0,0,0,0,0,0,0,0,0,0,0,0,0,0,0,0,0,0,0,0,0,0,13,-0.00379675,0,27.87944,2.149089,0.02927411,5.156348,2.44875,1,5.649714
178.015,39.14639,1.699171,27.85177,-6.602264,-1.03569,-8.338104,57,57,-0.1571113,4.255113,41.63187,0.3002171,72.53226,1.269315,0.7851599,-0.5217867,-1.59012,-4.394796,-37.57899,-33.40863,16.17126,-34.2179,53.72549,1.06,1205,23,22,0,29.80392,30.19608,0.8937353,16.28102,0.1,5.122515,137.7428,350.2,2.697095,5.453773,228,78,4544,0.96,1.638704,1.429688,1.689456,-0.00390625,0,0,0,0,0,0,0,0,0,0,0,0,12.88,0,0,0,0,0,0,0,0,0,47,42,0,0,0,0,0,0,0,0,0,0,0,0,0,0,0,0,0,0,0,0,0,0,0,0,0,0,0,0,0,0,0,0,0,0,0,0,0,0,0,0,0,0,0,0,0,0,0,0,0,0,0,0,0,0,0,12.9,-0.01975609,0,23.76121,2.179548,0.02949087,5.121935,2.483826,1,5.649714
179.015,39.14639,1.699171,27.85177,3.768509,-0.8497772,-3.812546,57,57,-0.1571113,4.255113,41.63187,0.3002171,72.53226,1.269315,0.4075252,-0.2786855,-0.07781494,-4.837136,-37.99488,-34.7415,15.78303,-33.37161,53.72549,1.06,1205,23,22,0,29.80392,30.19608,0.8937353,16.28102,0.1,5.122515,137.7428,350.2,2.697095,5.453773,228,78,4544,0.96,1.638704,1.429688,1.689456,-0.00390625,0,0,0,0,0,0,0,0,0,0,0,0,12.88,0,0,0,0,0,0,0,0,0,47,42,0,0,0,0,0,0,0,0,0,0,0,0,0,0,0,0,0,0,0,0,0,0,0,0,0,0,0,0,0,0,0,0,0,0,0,0,0,0,0,0,0,0,0,0,0,0,0,0,0,0,0,0,0,0,0,12.9,-0.01975609,0,23.76121,2.179548,0.02949087,5.121935,2.483826,1,5.649714
180.015,39.14639,1.699171,27.85177,-15.79391,-3.090439,-10.28145,57,57,-0.1571113,4.255113,41.63187,0.3002171,72.53226,1.269315,1.501891,-1.737346,-2.324084,-5.831159,-38.1666,-32.74462,16.61297,-32.69547,53.72549,1.06,1205,23,22,0,29.80392,30.19608,0.8937353,16.28102,0.1,5.122515,137.7428,350.3,2.697095,5.453773,228,78,4544,0.96,1.638704,1.429688,1.689456,-0.00390625,0,0,0,0,0,0,0,0,0,0,0,0,12.88,0,0,0,0,0,0,0,0,0,47,42,0,0,0,0,0,0,0,0,0,0,0,0,0,0,0,0,0,0,0,0,0,0,0,0,0,0,0,0,0,0,0,0,0,0,0,0,0,0,0,0,0,0,0,0,0,0,0,0,0,0,0,0,0,0,0,12.9,-0.01975609,0,23.76121,2.179548,0.02949087,5.121935,2.483826,1,5.649714
181.015,39.14639,1.699171,27.85177,0.7466888,-6.561447,7.921661,57,57,-0.1571113,4.255113,41.63187,0.3002171,72.53226,1.269315,-0.475822,0.9366598,0.2989616,-6.472013,-37.24641,-31.86263,14.48935,-33.66281,53.72549,1.06,1205,23,22,0,29.80392,30.19608,0.8937353,16.28102,0.1,5.122515,137.7428,350.3,2.697095,5.453773,228,78,4544,0.96,1.638704,1.429688,1.689456,-0.00390625,0,0,0,0,0,0,0,0,0,0,0,0,12.88,0,0,0,0,0,0,0,0,0,47,42,0,0,0,0,0,0,0,0,0,0,0,0,0,0,0,0,0,0,0,0,0,0,0,0,0,0,0,0,0,0,0,0,0,0,0,0,0,0,0,0,0,0,0,0,0,0,0,0,0,0,0,0,0,0,0,12.9,-0.01975609,0,23.76121,2.179548,0.02949087,5.121935,2.483826,1,5.649714
182.015,39.14639,1.699171,27.85177,-6.929946,1.819977,-3.416931,57,57,-0.1571113,4.255113,41.63187,0.3002171,72.53226,1.269315,0.3219514,0.6448085,-0.7654648,-5.871514,-37.55393,-32.95649,15.09104,-32.86528,53.72549,1.06,1205,23,22,0,29.80392,30.19608,0.8937353,16.28102,0.1,5.122515,137.7428,350.3,2.697095,5.453773,228,78,4544,0.96,1.638704,1.429688,1.689456,-0.00390625,0,0,0,0,0,0,0,0,0,0,0,0,12.88,0,0,0,0,0,0,0,0,0,47,42,0,0,0,0,0,0,0,0,0,0,0,0,0,0,0,0,0,0,0,0,0,0,0,0,0,0,0,0,0,0,0,0,0,0,0,0,0,0,0,0,0,0,0,0,0,0,0,0,0,0,0,0,0,0,0,12.9,-0.01975609,0,23.76121,2.179548,0.02949087,5.121935,2.483826,1,5.649714
183.015,39.14639,1.699171,27.85177,2.618225,3.161636,2.961426,57,57,-0.1571113,4.255113,41.63187,0.3002171,72.53226,1.269315,-0.02272949,-0.04677739,-0.1829863,-4.475513,-37.90434,-33.42036,16.04061,-33.24553,53.72549,1.06,1205,23,22,0,29.80392,30.19608,0.8937353,16.28102,0.1,5.122515,137.7428,350.3,2.697095,5.453773,228,78,4544,0.96,1.638704,1.429688,1.689456,-0.00390625,0,0,0,0,0,0,0,0,0,0,0,0,12.88,0,0,0,0,0,0,0,0,0,47,42,0,0,0,0,0,0,0,0,0,0,0,0,0,0,0,0,0,0,0,0,0,0,0,0,0,0,0,0,0,0,0,0,0,0,0,0,0,0,0,0,0,0,0,0,0,0,0,0,0,0,0,0,0,0,0,12.9,-0.01975609,0,23.76121,2.179548,0.02949087,5.121935,2.483826,1,5.649714
184.015,39.14639,1.699171,27.85177,-8.580002,-8.409149,-4.56987,57,57,-0.1571113,4.255113,41.63187,0.3002171,72.53226,1.269315,-0.2671679,0.1622612,-0.8209431,-5.361735,-37.13733,-32.63987,15.11542,-33.66403,53.72549,1.06,1205,23,22,0,29.80392,30.19608,0.8937353,16.28102,0.1,5.122515,137.7428,350.4,2.697095,5.453773,228,78,4544,0.96,1.638704,1.429688,1.689456,-0.00390625,0,0,0,0,0,0,0,0,0,0,0,0,12.88,0,0,0,0,0,0,0,0,0,47,42,0,0,0,0,0,0,0,0,0,0,0,0,0,0,0,0,0,0,0,0,0,0,0,0,0,0,0,0,0,0,0,0,0,0,0,0,0,0,0,0,0,0,0,0,0,0,0,0,0,0,0,0,0,0,0,12.9,-0.01975609,0,23.76121,2.179548,0.02949087,5.121935,2.483826,1,5.649714
185.015,39.14639,1.699171,27.85177,6.68071,6.713837,0.2634735,57,57,-0.1571113,4.255113,41.63187,0.3002171,72.53226,1.269315,0.006775917,-0.02826293,0.05605716,-5.689239,-37.38401,-32.8399,14.31762,-33.6261,53.72549,1.06,1205,23,22,0,29.80392,30.19608,0.8937353,16.28102,0.1,5.122515,137.7428,350.4,2.697095,5.453773,228,78,4544,0.96,1.638704,1.429688,1.689456,-0.00390625,0,0,0,0,0,0,0,0,0,0,0,0,12.88,0,0,0,0,0,0,0,0,0,47,42,0,0,0,0,0,0,0,0,0,0,0,0,0,0,0,0,0,0,0,0,0,0,0,0,0,0,0,0,0,0,0,0,0,0,0,0,0,0,0,0,0,0,0,0,0,0,0,0,0,0,0,0,0,0,0,12.9,-0.01975609,0,23.76121,2.179548,0.02949087,5.121935,2.483826,1,5.649714
186.015,39.14639,1.699171,27.85177,-33.37975,-32.50436,3.621704,57,57,-0.1571113,4.255113,41.63187,0.3002171,72.53226,1.269315,1.235688,-0.5310361,-1.137952,-5.089251,-38.34562,-33.47055,14.86845,-32.34445,53.72549,1.06,1205,23,22,0,29.80392,30.19608,0.8937353,16.28102,0.1,5.122515,137.7428,350.4,2.697095,5.453773,228,78,4544,0.96,1.638704,1.429688,1.689456,-0.00390625,0,0,0,0,0,0,0,0,0,0,0,0,12.88,0,0,0,0,0,0,0,0,0,47,42,0,0,0,0,0,0,0,0,0,0,0,0,0,0,0,0,0,0,0,0,0,0,0,0,0,0,0,0,0,0,0,0,0,0,0,0,0,0,0,0,0,0,0,0,0,0,0,0,0,0,0,0,0,0,0,12.9,-0.01975609,0,23.76121,2.179548,0.02949087,5.121935,2.483826,1,5.649714
187.015,39.14639,1.699171,27.85177,6.516739,11.3073,-2.043045,57,57,-0.1571113,4.255113,41.63187,0.3002171,72.53226,1.269315,0.2074384,-1.082559,-0.2579554,-2.619692,-42.67888,-35.15467,17.80439,-29.29674,53.72549,1.06,1205,23,22,0,29.80392,30.19608,0.8937353,16.28102,0.1,5.122515,137.7428,350.5,2.697095,5.453773,228,78,4544,0.96,1.638704,1.429688,1.689456,-0.00390625,0,0,0,0,0,0,0,0,0,0,0,0,12.88,0,0,0,0,0,0,0,0,0,47,42,0,0,0,0,0,0,0,0,0,0,0,0,0,0,0,0,0,0,0,0,0,0,0,0,0,0,0,0,0,0,0,0,0,0,0,0,0,0,0,0,0,0,0,0,0,0,0,0,0,0,0,0,0,0,0,12.9,-0.01975609,0,23.76121,2.179548,0.02949087,5.121935,2.483826,1,5.649714
188.015,41.63187,0,0,-2.606766,-7.406525,1.944733,59,60,-0.05463833,4.380531,41.63187,0,198.6614,0,-0.7130523,-0.07951721,-0.3900532,-5.142286,-37.72308,-32.62338,13.86639,-32.08978,86.27451,1.22,1170.5,24,22,0,37.2549,37.2549,0,18.38832,0.22,0,0,352,7.387177,5.453773,262,78,4545,0.96,1.328336,0.9179688,1.339072,-0.00390625,0,0,0,0,0,0,0,0,0,0,0,0,12.88,0,0,0,0,0,0,0,0,0,49,44,0,0,0,0,0,0,0,0,0,0,0,0,0,0,0,0,0,0,0,0,0,0,0,0,0,0,0,0,0,0,0,0,0,0,0,0,0,0,0,0,0,0,0,0,0,0,0,0,0,0,0,0,0,0,0,12.9,-0.03017076,0,19.26087,0,0,0,0,0,0
189.015,41.63187,0,0,2.198151,4.955124,4.181519,59,60,-0.05463833,4.380531,41.63187,0,198.6614,0,-1.981071,0.4500258,1.091143,-1.736047,-38.25873,-33.6079,17.45483,-31.06212,86.27451,1.22,1170.5,24,22,0,37.2549,37.2549,0,18.38832,0.22,0,0,352.2,7.387177,5.453773,262,78,4545,0.96,1.328336,0.9179688,1.339072,-0.00390625,0,0,0,0,0,0,0,0,0,0,0,0,12.88,0,0,0,0,0,0,0,0,0,49,44,0,0,0,0,0,0,0,0,0,0,0,0,0,0,0,0,0,0,0,0,0,0,0,0,0,0,0,0,0,0,0,0,0,0,0,0,0,0,0,0,0,0,0,0,0,0,0,0,0,0,0,0,0,0,0,12.9,-0.03017076,0,19.26087,0,0,0,0,0,0
