Time (sec),Vehicle speed (MPH),Fuel rate (l/hr),Total CO2 (kg), Rotation Rate X (deg/s), Rotation Rate Y (deg/s), Rotation Rate Z (deg/s), Engine coolant temperature (°C),Engine coolant temperature 1 (°C),Acceleration (m/s²),Engine Torque (kg•m),Max Speed (MPH),Total Trip CO2 (kg),Instant CO2 rate (g/km),CO2 flow (g/s), Accel X (m/s²), Accel Y (m/s²), Accel Z (m/s²), Roll (deg), Pitch (deg),Magnetometer X (µT), Magnetometer Y (µT), Magnetometer Z (µT),Calculated load value (%), Intake manifold absolute pressure (bar), Engine RPM (RPM), Intake air temperature (°C), Ambient air temperature (°C), Absolute throttle position B (%), Accelerator pedal position D (%), Accelerator pedal position E (%), Intake manifold absolute pressure (bar), Mass air flow rate (g/s), Boost (bar),Engine Power (kW),Average Trip CO2 Rate (g/km),Altitude (m),Instant fuel economy (l/100 km),Total fuel economy (l/100 km), Time since engine start (sec), Number of warm-ups since DTCs cleared, Distance traveled since DTCs cleared (km), Barometric pressure (bar),O2 sensor lambda wide range (current probe)  (Bank 1  Sensor 1),O2 sensor current wide range (Bank 1  Sensor 1) (mA),O2 sensor lambda wide range (current probe)  (Bank 1  Sensor 2),O2 sensor current wide range (Bank 1  Sensor 2) (mA),O2 sensor lambda wide range (current probe)  (Bank 1  Sensor 3),O2 sensor current wide range (Bank 1  Sensor 3) (mA),O2 sensor lambda wide range (current probe)  (Bank 1  Sensor 4),O2 sensor current wide range (Bank 1  Sensor 4) (mA),O2 sensor lambda wide range (current probe)  (Bank 2  Sensor 1),O2 sensor current wide range (Bank 2  Sensor 1) (mA),O2 sensor lambda wide range (current probe)  (Bank 2  Sensor 2),O2 sensor current wide range (Bank 2  Sensor 2) (mA),O2 sensor lambda wide range (current probe)  (Bank 2  Sensor 3),O2 sensor current wide range (Bank 2  Sensor 3) (mA),O2 sensor lambda wide range (current probe)  (Bank 2  Sensor 4),O2 sensor current wide range (Bank 2  Sensor 4) (mA), Control module voltage (V), Absolute throttle position C (%), Mass air flow sensor B (g/s), Relative throttle B position (%), Commanded boost pressure A (bar), Boost pressure sensor A (bar), Commanded boost pressure B (bar), Boost pressure sensor B (bar), Boost pressure A control status, Boost pressure B control status,Charge air cooler temperature bank 1  sensor 1 (°C),Charge air cooler temperature bank 1  sensor 2 (°C), Manifold surface temperature (°C), Intake manifold absolute pressure A (bar), Intake manifold absolute pressure B (bar),Total run time with EI-AECD #11 Timer 1 active (sec),Total run time with EI-AECD #11 Timer 2 active (sec),Total run time with EI-AECD #12 Timer 1 active (sec),Total run time with EI-AECD #12 Timer 2 active (sec), Diesel aftertreatment status,O2 sensor concentration bank 1 sensor 1 (%),O2 sensor concentration bank 1 sensor 2 (%),O2 sensor concentration bank 2 sensor 1 (%),O2 sensor concentration bank 2 sensor 2 (%), Absolute throttle position G (%),Target SCR Catalyst NH3 Storage A (g/L),Actual/Modelled SCR Catalyst NH3 Storage A (g/L),Target SCR Catalyst NH3 Storage B (g/L),Actual/Modelled SCR Catalyst NH3 Storage B (g/L), Hydrocarbon Doser Flow Rate (g/min), Hydrocarbon Doser Injector Duty Cycle (%),O2 sensor concentration bank 1 sensor 3 (%),O2 sensor concentration bank 1 sensor 4 (%),O2 sensor concentration bank 2 sensor 3 (%),O2 sensor concentration bank 2 sensor 4 (%),O2 sensor lambda bank 1 sensor 3,O2 sensor lambda bank 1 sensor 4,O2 sensor lambda bank 2 sensor 3,O2 sensor lambda bank 2 sensor 4, Engine Fuel Rate (g/s), Vehicle Fuel Rate (g/s), Engine Exhaust Flow Rate (g/s),Fuel System A Use Percentage Bank 1 (%),Fuel System A Use Percentage Bank 2 (%), Cylinder Fuel Rate, Transmission Actual Gear Status, Transmission Actual Gear Ratio, Vehicle Odometer Reading (km), Motorcycle ABS Disable Switch State, Maximum Current Vehicle Speed Limit (MPH), Alternative Fuel Tank Pressure (bar), Alternative Fuel Tank Temperature (°C),Crankcase Pressure Sensor (inH2O),Fuel System Status Bank 1,Fuel System Status Bank 2,Short Term Fuel Trim Bank 1 (%),Long Term Fuel Trim Bank 1 (%),Short Term Fuel Trim Bank 2 (%),Long Term Fuel Trim Bank 2 (%),O2 Sensor Concentration Bank 1 Sensor 5 (%),O2 Sensor Concentration Bank 1 Sensor 6 (%),O2 Sensor Concentration Bank 2 Sensor 5 (%),O2 Sensor Concentration Bank 2 Sensor 6 (%),O2 Sensor Lambda Bank 1 Sensor 5,O2 Sensor Lambda Bank 1 Sensor 6,O2 Sensor Lambda Bank 2 Sensor 5,O2 Sensor Lambda Bank 2 Sensor 6, Input voltage read by the scan tool (V), Acceleration (Avg) (m/s²), A/F Commanded, A/F Actual,Trip Distance (km), Trip Fuel (gal),Trip Fuel Economy (l/100 km),Trip Duration (min), Idling Count, Seconds Idling (sec)
0.000,0,0,0,7.249863,18.71809,0.9056854,0,0,0,0,0,0,0,0,0.5175782,-0.8525741,1.642053,3.070497,-71.44958,-6.983017,-40.36132,-19.0007,0,0,0,0,0,0,0,0,0,0,0,0,0,342.8,0,0,0,0,0,0,0,0,0,0,0,0,0,0,0,0,0,0,0,0,0,0,0,0,0,0,0,0,0,0,0,0,0,0,0,0,0,0,0,0,0,0,0,0,0,0,0,0,0,0,0,0,0,0,0,0,0,0,0,0,0,0,0,0,0,0,0,0,0,0,0,0,0,0,0,0,0,0,0,0,0,0,0,0,0,0,0,0,0,0,0,0,0,0,0,0,0,0,0
1.000,0,0,0,32.42026,56.88448,7.236511,0,0,0,0,0,0,0,0,0.8547403,0.3145569,0.4146881,7.80247,-75.76187,-12.18935,-34.60158,-22.27512,0,0,0,0,0,0,0,0,0,0,0,0,0,342.8,0,0,0,0,0,0,0,0,0,0,0,0,0,0,0,0,0,0,0,0,0,0,0,0,0,0,0,0,0,0,0,0,0,0,0,0,0,0,0,0,0,0,0,0,0,0,0,0,0,0,0,0,0,0,0,0,0,0,0,0,0,0,0,0,0,0,0,0,0,0,0,0,0,0,0,0,0,0,0,0,0,0,0,0,0,0,0,0,0,0,0,0,0,0,0,0,0,0,0
2.000,0,0,0,75.26199,26.2392,-10.2252,0,0,0,0,0,0,0,0,0.7204547,-1.022313,2.51971,6.379097,-87.2111,-11.19814,-26.67493,-28.12077,0,0,0,0,0,0,0,0,0,0,0,0,0,342.8,0,0,0,0,0,0,0,0,0,0,0,0,0,0,0,0,0,0,0,0,0,0,0,0,0,0,0,0,0,0,0,0,0,0,0,0,0,0,0,0,0,0,0,0,0,0,0,0,0,0,0,0,0,0,0,0,0,0,0,0,0,0,0,0,0,0,0,0,0,0,0,0,0,0,0,0,0,0,0,0,0,0,0,0,0,0,0,0,0,0,0,0,0,0,0,0,0,0,0
3.000,0,0,0,0.3281097,3.500534,-1.073013,77,78,-0.1239013,2.057974,0,0,0,0,-1.016093,0.9501218,0.07869779,-7.292193,-66.19514,-3.788048,-38.79006,-14.79028,28.62745,0.98,751,35,19,0,14.90196,14.90196,0,9.477127,-0.02,0,0,342.8,0,5.473001,232,73,4221,0.97,2.360456,2.132813,3.2696,-0.00390625,0,0,0,0,0,0,0,0,0,0,0,0,12.96,0,0,0,0,0,0,0,0,0,61,43,0,0,0,0,0,0,0,0,0,0,0,0,0,0,0,0,0,0,0,0,0,0,0,0,0,0,0,0,0,0,0,0,0,0,0,0,0,0,0,0,0,0,0,0,0,0,0,0,0,0,0,0,0,0,0,12.9,-0.2159413,0,34.22661,0,0,0,0,1,9E-06
4.000,0,0,0,13.75452,6.072296,-8.014267,77,78,-0.1239013,2.057974,0,0,0,0,-1.014436,0.657312,-0.1622613,-12.71265,-62.9348,-0.8342972,-39.81245,-12.6745,28.62745,0.98,751,35,19,0,14.90196,14.90196,0,9.477127,-0.02,0,0,342.8,0,5.473001,232,73,4221,0.97,2.360456,2.132813,3.2696,-0.00390625,0,0,0,0,0,0,0,0,0,0,0,0,12.96,0,0,0,0,0,0,0,0,0,61,43,0,0,0,0,0,0,0,0,0,0,0,0,0,0,0,0,0,0,0,0,0,0,0,0,0,0,0,0,0,0,0,0,0,0,0,0,0,0,0,0,0,0,0,0,0,0,0,0,0,0,0,0,0,0,0,12.9,-0.2159413,0,34.22661,0,0,0,0,1,9E-06
5.000,0,0.5421219,15.14053,13.36104,-23.52658,12.42406,77,78,9.15934E-16,2.17396,0,0.00131018,0,0.4049758,-1.342612,0.447719,0.5966714,-11.61895,-62.79223,-0.232338,-39.24329,-13.2641,29.80392,0.98,752.5,35,19,0,14.90196,14.90196,0.7032762,9.033811,0.01,1.634342,0,342.8,0,5.473474,232,73,4221,0.97,2.370216,2.140625,3.282776,-0.00390625,0,0,0,0,0,0,0,0,0,0,0,0,12.96,0,0,0,0,0,0,0,0,0,61,43,0,0,0,0,0,0,0,0,0,0,0,0,0,0,0,0,0,0,0,0,0,0,0,0,0,0,0,0,0,0,0,0,0,0,0,0,0,0,0,0,0,0,0,0,0,0,0,0,0,0,0,0,0,0,0,12.9,-0.2782087,0,34.36813,0,0.0001287014,0,0.08758483,1,1.761383
6.003,0,0.5421219,15.14053,-2.320023,6.990082,2.487808,77,78,9.15934E-16,2.17396,0,0.00131018,0,0.4049758,-0.1814933,0.4011113,-0.1323337,-6.672313,-59.79994,-10.37374,-39.50053,-5.868195,29.80392,0.98,752.5,35,19,0,14.90196,14.90196,0.7032762,9.033811,0.01,1.634342,0,342.8,0,5.473474,232,73,4221,0.97,2.370216,2.140625,3.282776,-0.00390625,0,0,0,0,0,0,0,0,0,0,0,0,12.96,0,0,0,0,0,0,0,0,0,61,43,0,0,0,0,0,0,0,0,0,0,0,0,0,0,0,0,0,0,0,0,0,0,0,0,0,0,0,0,0,0,0,0,0,0,0,0,0,0,0,0,0,0,0,0,0,0,0,0,0,0,0,0,0,0,0,12.9,-0.2782087,0,34.36813,0,0.0001287014,0,0.08758483,1,1.761383
7.005,0,0.5713796,15.14129,0.3925323,-0.08189392,-1.680344,77,78,9.15934E-16,2.295862,0,0.002068575,0,0.4268319,-0.4776048,0.1999909,-0.245148,-8.805738,-61.45356,-7.550682,-40.001,-8.822311,29.01961,0.98,751,35,19,0,14.90196,14.90196,0.7105529,9.015803,0.01,1.722546,0,342.8,0,5.473748,232,73,4221,0.97,2.341424,2.109375,3.175416,-0.00390625,0,0,0,0,0,0,0,0,0,0,0,0,12.96,0,0,0,0,0,0,0,0,0,61,43,0,0,0,0,0,0,0,0,0,0,0,0,0,0,0,0,0,0,0,0,0,0,0,0,0,0,0,0,0,0,0,0,0,0,0,0,0,0,0,0,0,0,0,0,0,0,0,0,0,0,0,0,0,0,0,13,-0.250189,0,33.95065,0,0.0002031999,0,0.1177766,1,3.572894
8.008,0,0.5631383,15.14204,3.384216,0.5048828,-5.230423,77,78,9.15934E-16,2.267276,0,0.00282587,0,0.4206755,-0.2555965,0.02269945,0.2393686,-9.496618,-61.00623,-6.991531,-39.88387,-8.611298,29.41176,0.98,749.5,35,19,0,14.90196,14.90196,0.7206679,8.997795,0.01,1.697701,0,342.8,0,5.474022,232,73,4221,0.97,2.308728,2.089844,3.143696,-0.00390625,0,0,0,0,0,0,0,0,0,0,0,0,12.96,0,0,0,0,0,0,0,0,0,61,43,0,0,0,0,0,0,0,0,0,0,0,0,0,0,0,0,0,0,0,0,0,0,0,0,0,0,0,0,0,0,0,0,0,0,0,0,0,0,0,0,0,0,0,0,0,0,0,0,0,0,0,0,0,0,0,13,-0.2634249,0,33.47655,0,0.0002775904,0,0.1479461,1,5.383036
9.010,0,0.5631383,15.14204,-28.56976,-43.13792,13.28426,77,78,9.15934E-16,2.267276,0,0.00282587,0,0.4206755,-0.6022139,0.3509772,-0.4455955,-15.80465,-55.13,-3.796341,-40.56762,-6.194641,29.41176,0.98,749.5,35,19,0,14.90196,14.90196,0.7206679,8.997795,0.01,1.697701,0,342.8,0,5.474022,232,73,4221,0.97,2.308728,2.089844,3.143696,-0.00390625,0,0,0,0,0,0,0,0,0,0,0,0,12.96,0,0,0,0,0,0,0,0,0,61,43,0,0,0,0,0,0,0,0,0,0,0,0,0,0,0,0,0,0,0,0,0,0,0,0,0,0,0,0,0,0,0,0,0,0,0,0,0,0,0,0,0,0,0,0,0,0,0,0,0,0,0,0,0,0,0,13,-0.2634249,0,33.47655,0,0.0002775904,0,0.1479461,1,5.383036
10.013,0,0.5612789,15.1428,-2.357574,5.054672,-2.289688,77,78,9.15934E-16,2.25979,0,0.003584169,0,0.4192864,0.9634307,-0.4436003,0.329899,-1.4653,-66.08736,-13.19861,-38.28937,-9.575653,29.41176,0.98,749.5,35,19,0,14.90196,14.90196,0.7101295,8.997795,0.01,1.692095,0,342.8,0,5.474296,232,73,4221,0.97,2.294576,2.078125,3.192984,-0.00390625,0,0,0,0,0,0,0,0,0,0,0,0,12.96,0,0,0,0,0,0,0,0,0,61,43,0,0,0,0,0,0,0,0,0,0,0,0,0,0,0,0,0,0,0,0,0,0,0,0,0,0,0,0,0,0,0,0,0,0,0,0,0,0,0,0,0,0,0,0,0,0,0,0,0,0,0,0,0,0,0,13,-0.2634249,0,33.27135,0,0.0003520795,0,0.1833684,1,7.508399
11.015,0,0.5612789,15.1428,-2.175369,-0.1533813,0.971283,77,78,9.15934E-16,2.25979,0,0.003584169,0,0.4192864,-0.1228923,0.05535433,-0.1569535,-4.723274,-64.0042,-10.65398,-38.83518,-9.443283,29.41176,0.98,749.5,35,19,0,14.90196,14.90196,0.7101295,8.997795,0.01,1.692095,0,342.8,0,5.474296,232,73,4221,0.97,2.294576,2.078125,3.192984,-0.00390625,0,0,0,0,0,0,0,0,0,0,0,0,12.96,0,0,0,0,0,0,0,0,0,61,43,0,0,0,0,0,0,0,0,0,0,0,0,0,0,0,0,0,0,0,0,0,0,0,0,0,0,0,0,0,0,0,0,0,0,0,0,0,0,0,0,0,0,0,0,0,0,0,0,0,0,0,0,0,0,0,13,-0.2634249,0,33.27135,0,0.0003520795,0,0.1833684,1,7.508399
12.017,0,0.5586963,15.14369,0.2653656,1.775253,-2.117722,77,78,9.15934E-16,2.246395,0,0.004470387,0,0.4173572,-0.2090047,0.1401888,-0.03804928,-6.006465,-62.96213,-10.03641,-38.70902,-8.766617,29.41176,0.98,750.5,35,19,0,14.90196,14.90196,0.706862,9.009801,0.01,1.684309,0,342.8,0,5.474617,232,73,4221,0.97,2.30336,2.085938,3.175416,-0.00390625,0,0,0,0,0,0,0,0,0,0,0,0,12.96,0,0,0,0,0,0,0,0,0,61,43,0,0,0,0,0,0,0,0,0,0,0,0,0,0,0,0,0,0,0,0,0,0,0,0,0,0,0,0,0,0,0,0,0,0,0,0,0,0,0,0,0,0,0,0,0,0,0,0,0,0,0,0,0,0,0,13,-0.2493234,0,33.39872,0,0.0004391343,0,0.2129056,1,9.280626
13.019,0,0.5586963,15.14369,4.554825,-2.381607,0.2050323,77,78,9.15934E-16,2.246395,0,0.004470387,0,0.4173572,-0.3436007,0.395988,0.3833943,-7.942791,-61.76031,-8.837509,-39.14404,-8.1185,29.41176,0.98,750.5,35,19,0,14.90196,14.90196,0.706862,9.009801,0.01,1.684309,0,342.8,0,5.474617,232,73,4221,0.97,2.30336,2.085938,3.175416,-0.00390625,0,0,0,0,0,0,0,0,0,0,0,0,12.96,0,0,0,0,0,0,0,0,0,61,43,0,0,0,0,0,0,0,0,0,0,0,0,0,0,0,0,0,0,0,0,0,0,0,0,0,0,0,0,0,0,0,0,0,0,0,0,0,0,0,0,0,0,0,0,0,0,0,0,0,0,0,0,0,0,0,13,-0.2493234,0,33.39872,0,0.0004391343,0,0.2129056,1,9.280626
14.021,0,0.566444,15.14444,2.521973,-5.343307,-1.071457,77,78,9.15934E-16,2.279065,0,0.0052201,0,0.4231449,-0.08986352,0.07275608,0.1315541,-6.158071,-62.85319,-9.328339,-38.9236,-8.74057,29.01961,0.98,750,35,19,0,14.90196,14.90196,0.7157095,9.003798,0.01,1.707666,0,342.8,0,5.474887,232,73,4221,0.97,2.32044,2.097656,3.253984,-0.00390625,0,0,0,0,0,0,0,0,0,0,0,0,12.96,0,0,0,0,0,0,0,0,0,61,43,0,0,0,0,0,0,0,0,0,0,0,0,0,0,0,0,0,0,0,0,0,0,0,0,0,0,0,0,0,0,0,0,0,0,0,0,0,0,0,0,0,0,0,0,0,0,0,0,0,0,0,0,0,0,0,13,-0.1690817,0,33.64638,0,0.0005127799,0,0.2441241,1,11.15374
15.023,0,0.566444,15.14444,-7.080963,4.974335,0.2367859,77,78,9.15934E-16,2.279065,0,0.0052201,0,0.4231449,0.6251767,-0.2263387,0.3299489,5.233113,-65.71944,-15.81202,-37.48585,-5.943939,29.01961,0.98,750,35,19,0,14.90196,14.90196,0.7157095,9.003798,0.01,1.707666,0,342.8,0,5.474887,232,73,4221,0.97,2.32044,2.097656,3.253984,-0.00390625,0,0,0,0,0,0,0,0,0,0,0,0,12.96,0,0,0,0,0,0,0,0,0,61,43,0,0,0,0,0,0,0,0,0,0,0,0,0,0,0,0,0,0,0,0,0,0,0,0,0,0,0,0,0,0,0,0,0,0,0,0,0,0,0,0,0,0,0,0,0,0,0,0,0,0,0,0,0,0,0,13,-0.1690817,0,33.64638,0,0.0005127799,0,0.2441241,1,11.15374
16.025,0,0.5537952,15.14521,23.33585,36.68355,-22.02121,77,78,9.15934E-16,2.222247,0,0.00598879,0,0.4136959,-0.6671109,0.90164,-2.119652,7.785819,-53.28098,-31.97422,-22.95654,7.932327,29.01961,0.98,752,35,19,0,14.90196,14.90196,0.7096561,9.027808,0.01,1.669534,0,342.8,0,5.475165,232,73,4221,0.97,2.09596,1.941406,2.184288,-0.00390625,0,0,0,0,0,0,0,0,0,0,0,0,12.96,0,0,0,0,0,0,0,0,0,61,43,0,0,0,0,0,0,0,0,0,0,0,0,0,0,0,0,0,0,0,0,0,0,0,0,0,0,0,0,0,0,0,0,0,0,0,0,0,0,0,0,0,0,0,0,0,0,0,0,0,0,0,0,0,0,0,13,-0.1030773,0,30.39142,0,0.0005882898,0,0.273638,1,12.9246
17.026,0,0.5537952,15.14521,-51.19006,-45.5526,-59.0278,77,78,9.15934E-16,2.222247,0,0.00598879,0,0.4136959,1.398946,0.5679196,0.3866186,6.115327,-56.55321,-33.7094,-25.66379,7.246185,29.01961,0.98,752,35,19,0,14.90196,14.90196,0.7096561,9.027808,0.01,1.669534,0,342.8,0,5.475165,232,73,4221,0.97,2.09596,1.941406,2.184288,-0.00390625,0,0,0,0,0,0,0,0,0,0,0,0,12.96,0,0,0,0,0,0,0,0,0,61,43,0,0,0,0,0,0,0,0,0,0,0,0,0,0,0,0,0,0,0,0,0,0,0,0,0,0,0,0,0,0,0,0,0,0,0,0,0,0,0,0,0,0,0,0,0,0,0,0,0,0,0,0,0,0,0,13,-0.1030773,0,30.39142,0,0.0005882898,0,0.273638,1,12.9246
18.028,0,0.7423573,15.14619,22.78035,20.40344,-11.81827,77,78,9.15934E-16,2.285851,0,0.006970487,0,0.5545556,1.110534,-0.3798786,1.169683,8.507909,-60.11113,-38.8196,-24.79486,10.4175,47.05882,1.01,980,36,19,0,14.90196,14.90196,0.9487574,12.12511,0.04,2.237995,0,342.8,0,5.47552,232,73,4221,0.97,1.841224,1.675781,2.161352,-0.00390625,0,0,0,0,0,0,0,0,0,0,0,0,12.96,0,0,0,0,0,0,0,0,0,61,43,0,0,0,0,0,0,0,0,0,0,0,0,0,0,0,0,0,0,0,0,0,0,0,0,0,0,0,0,0,0,0,0,0,0,0,0,0,0,0,0,0,0,0,0,0,0,0,0,0,0,0,0,0,0,0,13,-0.02478026,0,26.69775,0,0.0006847237,0,0.3094023,1,15.07042
19.029,0,0.7423573,15.14619,6.782318,16.44072,-3.68959,77,78,9.15934E-16,2.285851,0,0.006970487,0,0.5545556,0.4538091,-0.01820519,-0.3526015,5.48106,-56.34004,-38.30838,-23.10178,9.368637,47.05882,1.01,980,36,19,0,14.90196,14.90196,0.9487574,12.12511,0.04,2.237995,0,342.8,0,5.47552,232,73,4221,0.97,1.841224,1.675781,2.161352,-0.00390625,0,0,0,0,0,0,0,0,0,0,0,0,12.96,0,0,0,0,0,0,0,0,0,61,43,0,0,0,0,0,0,0,0,0,0,0,0,0,0,0,0,0,0,0,0,0,0,0,0,0,0,0,0,0,0,0,0,0,0,0,0,0,0,0,0,0,0,0,0,0,0,0,0,0,0,0,0,0,0,0,13,-0.02478026,0,26.69775,0,0.0006847237,0,0.3094023,1,15.07042
20.030,2.485485,1.031651,15.14787,-48.49313,-27.77054,-5.170319,77,78,0.255736,3.116222,2.485485,0.008652979,693.5975,0.7706639,1.964642,0.4941291,-1.382195,8.301622,-52.89726,-43.13773,-11.87239,9.415985,23.52941,1.01,999,36,19,0,14.90196,14.90196,0.625928,12.32021,0.04,3.110133,3584.863,342.8,25.79126,5.476,232,73,4221,0.97,2.43512,2.195313,2.884568,-0.00390625,0,0,0,0,0,0,0,0,0,0,0,0,12.96,0,0,0,0,0,0,0,0,0,61,43,0,0,0,0,0,0,0,0,0,0,0,0,0,0,0,0,0,0,0,0,0,0,0,0,0,0,0,0,0,0,0,0,0,0,0,0,0,0,0,0,0,0,0,0,0,0,0,0,0,0,0,0,0,0,0,13,0.0511472,0,35.30924,0.002413755,0.0008499979,133.3023,0.3392079,1,16.85879
21.031,2.485485,1.031651,15.14787,-4.147888,19.8519,0.2528839,77,78,0.255736,3.116222,2.485485,0.008652979,693.5975,0.7706639,-0.578781,0.2563794,-0.1887974,4.441622,-53.39349,-44.80241,-8.52058,4.064667,23.52941,1.01,999,36,19,0,14.90196,14.90196,0.625928,12.32021,0.04,3.110133,3584.863,342.8,25.79126,5.476,232,73,4221,0.97,2.43512,2.195313,2.884568,-0.00390625,0,0,0,0,0,0,0,0,0,0,0,0,12.96,0,0,0,0,0,0,0,0,0,61,43,0,0,0,0,0,0,0,0,0,0,0,0,0,0,0,0,0,0,0,0,0,0,0,0,0,0,0,0,0,0,0,0,0,0,0,0,0,0,0,0,0,0,0,0,0,0,0,0,0,0,0,0,0,0,0,13,0.0511472,0,35.30924,0.002413755,0.0008499979,133.3023,0.3392079,1,16.85879
22.032,3.106856,0.4896555,15.14852,-31.71967,-29.84576,10.27008,77,78,0.3340745,1.507737,3.106856,0.009301079,263.3633,0.3657824,0.5054433,0.3185875,-0.5759265,13.07168,-52.74273,-38.48972,13.54084,-2.017487,27.84314,1,980,36,19,0,14.90196,14.90196,0.5828714,11.96623,0.03,1.476171,1907.46,342.8,9.793103,5.476103,252,73,4221,0.97,2.558096,2.265625,2.664968,-0.00390625,0,0,0,0,0,0,0,0,0,0,0,0,12.94,0,0,0,0,0,0,0,0,0,62,45,0,0,0,0,0,0,0,0,0,0,0,0,0,0,0,0,0,0,0,0,0,0,0,0,0,0,0,0,0,0,0,0,0,0,0,0,0,0,0,0,0,0,0,0,0,0,0,0,0,0,0,0,0,0,0,12.9,0.06681491,0,37.09239,0.004876161,0.000913662,70.92844,0.3770416,1,19.12878
23.036,3.106856,0.4896555,15.14852,10.96356,-31.07933,16.87332,77,78,0.3340745,1.507737,3.106856,0.009301079,263.3633,0.3657824,-1.584358,0.8850717,-1.098985,8.404947,-48.2998,-36.45576,16.91355,-20.10841,27.84314,1,980,36,19,0,14.90196,14.90196,0.5828714,11.96623,0.03,1.476171,1907.46,342.8,9.793103,5.476103,252,73,4221,0.97,2.558096,2.265625,2.664968,-0.00390625,0,0,0,0,0,0,0,0,0,0,0,0,12.94,0,0,0,0,0,0,0,0,0,62,45,0,0,0,0,0,0,0,0,0,0,0,0,0,0,0,0,0,0,0,0,0,0,0,0,0,0,0,0,0,0,0,0,0,0,0,0,0,0,0,0,0,0,0,0,0,0,0,0,0,0,0,0,0,0,0,12.9,0.06681491,0,37.09239,0.004876161,0.000913662,70.92844,0.3770416,1,19.12878
24.035,2.485485,0.8239092,15.14992,43.53096,64.89064,41.98224,77,78,0.01753332,2.341078,3.106856,0.01070031,553.9288,0.6154765,-1.143719,0.8562458,-1.61772,1.025987,-43.88301,-30.01872,20.63884,-31.73776,58.03922,1.03,1062,36,19,0,33.72549,34.5098,0.8448775,13.35651,0.06,2.48385,1443.235,342.8,20.59771,5.476474,252,73,4221,0.97,1.31272,0.9648438,1.32248,-0.00390625,0,0,0,0,0,0,0,0,0,0,0,0,12.94,0,0,0,0,0,0,0,0,0,62,45,0,0,0,0,0,0,0,0,0,0,0,0,0,0,0,0,0,0,0,0,0,0,0,0,0,0,0,0,0,0,0,0,0,0,0,0,0,0,0,0,0,0,0,0,0,0,0,0,0,0,0,0,0,0,0,12.9,0.05465386,0,19.03444,0.007414117,0.001051111,53.66636,0.4067991,1,20.91425
25.036,2.485485,0.8239092,15.14992,10.24362,18.81798,5.365738,77,78,0.01753332,2.341078,3.106856,0.01070031,553.9288,0.6154765,1.194401,0.1682601,0.01271289,3.679921,-43.042,-33.60536,26.4005,-35.65527,58.03922,1.03,1062,36,19,0,33.72549,34.5098,0.8448775,13.35651,0.06,2.48385,1443.235,342.8,20.59771,5.476474,252,73,4221,0.97,1.31272,0.9648438,1.32248,-0.00390625,0,0,0,0,0,0,0,0,0,0,0,0,12.94,0,0,0,0,0,0,0,0,0,62,45,0,0,0,0,0,0,0,0,0,0,0,0,0,0,0,0,0,0,0,0,0,0,0,0,0,0,0,0,0,0,0,0,0,0,0,0,0,0,0,0,0,0,0,0,0,0,0,0,0,0,0,0,0,0,0,12.9,0.05465386,0,19.03444,0.007414117,0.001051111,53.66636,0.4067991,1,20.91425
26.036,6.213712,2.490379,15.15322,8.84993,4.019348,-8.430405,77,78,0.4112619,6.272919,6.213712,0.01400617,669.7306,1.860363,0.9592017,0.2366855,-0.4618264,6.58073,-32.42338,-32.919,27.83229,-39.91411,77.25491,1.14,1198,39,19,0,33.33333,33.33333,1.13052,16.67604,0.17,7.507781,1137.078,342.8,24.90377,5.477408,252,73,4221,0.97,1.412272,1.078125,1.60552,-0.00390625,0,0,0,0,0,0,0,0,0,0,0,0,12.94,0,0,0,0,0,0,0,0,0,62,45,0,0,0,0,0,0,0,0,0,0,0,0,0,0,0,0,0,0,0,0,0,0,0,0,0,0,0,0,0,0,0,0,0,0,0,0,0,0,0,0,0,0,0,0,0,0,0,0,0,0,0,0,0,0,0,13,0.1490673,0,20.47794,0.01231769,0.001375852,42.28197,0.4422348,1,23.04046
27.037,6.213712,2.490379,15.15322,-11.93399,22.83832,-30.9902,77,78,0.4112619,6.272919,6.213712,0.01400617,669.7306,1.860363,0.8377704,1.097885,-0.968533,-0.2401996,-34.65813,-25.67004,22.71187,-41.52274,77.25491,1.14,1198,39,19,0,33.33333,33.33333,1.13052,16.67604,0.17,7.507781,1137.078,342.8,24.90377,5.477408,252,73,4221,0.97,1.412272,1.078125,1.60552,-0.00390625,0,0,0,0,0,0,0,0,0,0,0,0,12.94,0,0,0,0,0,0,0,0,0,62,45,0,0,0,0,0,0,0,0,0,0,0,0,0,0,0,0,0,0,0,0,0,0,0,0,0,0,0,0,0,0,0,0,0,0,0,0,0,0,0,0,0,0,0,0,0,0,0,0,0,0,0,0,0,0,0,13,0.1490673,0,20.47794,0.01231769,0.001375852,42.28197,0.4422348,1,23.04046
28.038,9.941939,1.725284,15.15596,-3.810776,-15.57289,5.388947,77,78,0.8625566,5.637476,9.941939,0.0167419,289.9848,1.288821,0.3704025,-0.03901507,0.4820988,1.219647,-38.9748,-23.87473,23.72496,-40.75226,6.27451,1.03,923.5,39,19,0,14.90196,21.17647,0.5266601,11.50301,0.06,5.201237,767.8903,342.7,10.78302,5.477891,252,73,4221,0.97,1.311256,0.7773438,1.676768,-0.00390625,0,0,0,0,0,0,0,0,0,0,0,0,12.94,0,0,0,0,0,0,0,0,0,62,45,0,0,0,0,0,0,0,0,0,0,0,0,0,0,0,0,0,0,0,0,0,0,0,0,0,0,0,0,0,0,0,0,0,0,0,0,0,0,0,0,0,0,0,0,0,0,0,0,0,0,0,0,0,0,0,13,0.2271652,0,19.01321,0.02180246,0.001644587,28.55382,0.471329,1,23.04046
29.039,9.941939,1.725284,15.15596,7.566147,-7.729461,8.064438,77,78,0.8625566,5.637476,9.941939,0.0167419,289.9848,1.288821,-0.04303181,-0.1632727,0.04080383,8.765011,-39.07211,-24.94905,24.9707,-39.89732,6.27451,1.03,923.5,39,19,0,14.90196,21.17647,0.5266601,11.50301,0.06,5.201237,767.8903,342.6,10.78302,5.477891,252,73,4221,0.97,1.311256,0.7773438,1.676768,-0.00390625,0,0,0,0,0,0,0,0,0,0,0,0,12.94,0,0,0,0,0,0,0,0,0,62,45,0,0,0,0,0,0,0,0,0,0,0,0,0,0,0,0,0,0,0,0,0,0,0,0,0,0,0,0,0,0,0,0,0,0,0,0,0,0,0,0,0,0,0,0,0,0,0,0,0,0,0,0,0,0,0,13,0.2271652,0,19.01321,0.02180246,0.001644587,28.55382,0.471329,1,23.04046
30.041,10.56331,0.3044909,15.15636,0.729248,1.223343,24.47928,77,78,0.4702427,0.6916299,10.56331,0.0171383,48.16816,0.2274607,1.046091,-0.02666963,0.2215537,15.36315,-42.67229,-18.7511,24.80147,-47.29605,57.64706,1.14,1328.5,39,19,0,14.90196,14.90196,1.484603,18.31486,0.17,0.9179529,570.7798,342.5,1.791122,5.477597,252,73,4221,0.97,2.915312,2.496094,11.18447,-0.00390625,0,0,0,0,0,0,0,0,0,0,0,0,12.94,0,0,0,0,0,0,0,0,0,62,45,0,0,0,0,0,0,0,0,0,0,0,0,0,0,0,0,0,0,0,0,0,0,0,0,0,0,0,0,0,0,0,0,0,0,0,0,0,0,0,0,0,0,0,0,0,0,0,0,0,0,0,0,0,0,0,13.1,0.2431158,0,42.27202,0.03002612,0.001683527,21.22431,0.5011983,1,23.04046
31.041,11.18468,1.437563,15.1583,19.5256,21.21146,6.171677,77,78,0.1566941,3.70293,11.18468,0.01907803,214.7775,1.073888,0.9463375,0.3022625,0.7763545,20.33498,-45.71624,-26.03079,20.43858,-62.4837,0,1.01,1171.5,39,19,0,19.60784,29.41176,0.5303234,14.30872,0.04,4.333839,488.531,342.5,7.986453,5.477818,252,73,4221,0.97,1.930528,1.796875,1.789008,-0.00390625,0,0,0,0,0,0,0,0,0,0,0,0,12.94,0,0,0,0,0,0,0,0,0,62,45,0,0,0,0,0,0,0,0,0,0,0,0,0,0,0,0,0,0,0,0,0,0,0,0,0,0,0,0,0,0,0,0,0,0,0,0,0,0,0,0,0,0,0,0,0,0,0,0,0,0,0,0,0,0,0,13.1,0.258504,0,27.99266,0.03905183,0.001874069,18.16591,0.5304403,1,23.04046
32.041,11.18468,1.437563,15.1583,15.30418,25.29651,-5.643173,77,78,0.1566941,3.70293,11.18468,0.01907803,214.7775,1.073888,-0.316399,0.1937227,-1.447687,10.91627,-40.58569,2.661514,15.40119,-50.74307,0,1.01,1171.5,39,19,0,19.60784,29.41176,0.5303234,14.30872,0.04,4.333839,488.531,342.4,7.986453,5.477818,252,73,4221,0.97,1.930528,1.796875,1.789008,-0.00390625,0,0,0,0,0,0,0,0,0,0,0,0,12.94,0,0,0,0,0,0,0,0,0,62,45,0,0,0,0,0,0,0,0,0,0,0,0,0,0,0,0,0,0,0,0,0,0,0,0,0,0,0,0,0,0,0,0,0,0,0,0,0,0,0,0,0,0,0,0,0,0,0,0,0,0,0,0,0,0,0,13.1,0.258504,0,27.99266,0.03905183,0.001874069,18.16591,0.5304403,1,23.04046
33.042,11.18468,0,15.1583,-17.63474,-3.415909,-9.269577,77,78,0.07694076,0,11.18468,0.01907803,0,0,-0.6469852,-0.1308121,0.2029342,2.992671,-40.03009,-3.595612,22.40274,-35.73456,52.54902,1.04,1332,37,19,0,32.15686,33.33333,0.7566852,16.75231,0.07,0,399.4192,342.3,0,5.477354,252,73,4221,0.97,1.411296,1.078125,1.434232,-0.00390625,0,0,0,0,0,0,0,0,0,0,0,0,12.94,0,0,0,0,0,0,0,0,0,62,45,0,0,0,0,0,0,0,0,0,0,0,0,0,0,0,0,0,0,0,0,0,0,0,0,0,0,0,0,0,0,0,0,0,0,0,0,0,0,0,0,0,0,0,0,0,0,0,0,0,0,0,0,0,0,0,13,0.258504,0,20.46379,0.04776442,0.001874069,14.85231,0.5652863,1,23.04046
34.042,11.18468,0,15.1583,7.538544,-14.33395,4.421249,77,78,0.07694076,0,11.18468,0.01907803,0,0,0.2478467,-0.2750458,-0.224044,1.348427,-39.42241,-0.9126587,20.38768,-32.90509,52.54902,1.04,1332,37,19,0,32.15686,33.33333,0.7566852,16.75231,0.07,0,399.4192,342.2,0,5.477354,252,73,4221,0.97,1.411296,1.078125,1.434232,-0.00390625,0,0,0,0,0,0,0,0,0,0,0,0,12.94,0,0,0,0,0,0,0,0,0,62,45,0,0,0,0,0,0,0,0,0,0,0,0,0,0,0,0,0,0,0,0,0,0,0,0,0,0,0,0,0,0,0,0,0,0,0,0,0,0,0,0,0,0,0,0,0,0,0,0,0,0,0,0,0,0,0,13,0.258504,0,20.46379,0.04776442,0.001874069,14.85231,0.5652863,1,23.04046
35.043,13.67017,2.310173,15.16193,-1.884506,2.854263,-1.447556,77,78,0.2651275,4.307178,13.67017,0.02271328,282.3947,1.725745,-0.2284744,-0.4146464,1.047595,1.199846,-40.84637,-4.592628,20.50829,-31.79413,62.7451,1.12,1618.5,37,19,0,29.01961,28.62745,0.9264818,22.06274,0.15,6.96451,374.9934,342.3,10.50078,5.477986,252,73,4221,0.97,1.733376,1.574219,2.09596,-0.00390625,0,0,0,0,0,0,0,0,0,0,0,0,12.94,0,0,0,0,0,0,0,0,0,62,45,0,0,0,0,0,0,0,0,0,0,0,0,0,0,0,0,0,0,0,0,0,0,0,0,0,0,0,0,0,0,0,0,0,0,0,0,0,0,0,0,0,0,0,0,0,0,0,0,0,0,0,0,0,0,0,13,0.3115295,0,25.13395,0.06056982,0.002231167,13.94404,0.5957472,1,23.04046
36.043,13.67017,2.310173,15.16193,-10.42126,-10.33347,30.51024,77,78,0.2651275,4.307178,13.67017,0.02271328,282.3947,1.725745,-0.5945794,-0.210415,0.03162038,0.04145286,-41.65539,-5.856537,21.02695,-31.61105,62.7451,1.12,1618.5,37,19,0,29.01961,28.62745,0.9264818,22.06274,0.15,6.96451,374.9934,342.4,10.50078,5.477986,252,73,4221,0.97,1.733376,1.574219,2.09596,-0.00390625,0,0,0,0,0,0,0,0,0,0,0,0,12.94,0,0,0,0,0,0,0,0,0,62,45,0,0,0,0,0,0,0,0,0,0,0,0,0,0,0,0,0,0,0,0,0,0,0,0,0,0,0,0,0,0,0,0,0,0,0,0,0,0,0,0,0,0,0,0,0,0,0,0,0,0,0,0,0,0,0,13,0.3115295,0,25.13395,0.06056982,0.002231167,13.94404,0.5957472,1,23.04046
37.046,14.91291,2.448048,15.16526,22.01675,-2.349869,-8.809006,77,78,0.4167016,4.68435,14.91291,0.02604438,274.3111,1.82874,0.4608604,-0.138342,0.09661427,0.8601519,-39.54029,-5.602982,20.44088,-35.29608,0,1.04,1577,37,19,0,14.90196,14.90196,0.6766883,19.96153,0.07,7.380164,357.815,342.4,10.20019,5.478539,252,73,4221,0.97,15.9903,3.652344,15.9903,-0.00390625,0,0,0,0,0,0,0,0,0,0,0,0,12.94,0,0,0,0,0,0,0,0,0,62,45,0,0,0,0,0,0,0,0,0,0,0,0,0,0,0,0,0,0,0,0,0,0,0,0,0,0,0,0,0,0,0,0,0,0,0,0,0,0,0,0,0,0,0,0,0,0,0,0,0,0,0,0,0,0,0,14.7,0.3418443,0,231.8593,0.07278728,0.002558387,13.30527,0.6263127,1,23.04046
38.044,14.91291,2.448048,15.16526,-9.473938,-19.95259,-37.6732,77,78,0.4167016,4.68435,14.91291,0.02604438,274.3111,1.82874,0.2529127,0.004517584,-1.330709,1.954994,-33.96491,4.291367,18.95195,-45.33791,0,1.04,1577,37,19,0,14.90196,14.90196,0.6766883,19.96153,0.07,7.380164,357.815,342.3,10.20019,5.478539,252,73,4221,0.97,15.9903,3.652344,15.9903,-0.00390625,0,0,0,0,0,0,0,0,0,0,0,0,12.94,0,0,0,0,0,0,0,0,0,62,45,0,0,0,0,0,0,0,0,0,0,0,0,0,0,0,0,0,0,0,0,0,0,0,0,0,0,0,0,0,0,0,0,0,0,0,0,0,0,0,0,0,0,0,0,0,0,0,0,0,0,0,0,0,0,0,14.7,0.3418443,0,231.8593,0.07278728,0.002558387,13.30527,0.6263127,1,23.04046
39.044,12.42742,0,15.16526,9.715973,-20.84853,-16.69341,77,78,-0.1521419,0,14.91291,0.02604438,0,0,0.9615955,0.4486538,-1.227659,1.201198,-33.62797,-6.860237,20.86272,-47.92113,0,1,1276.5,37,19,0,14.90196,14.90196,0.475675,15.53637,0.03,0,313.9789,342.3,0,5.477998,252,73,4221,0.97,15.9903,3.808594,15.9903,-0.00390625,0,0,0,0,0,0,0,0,0,0,0,0,12.94,0,0,0,0,0,0,0,0,0,62,45,0,0,0,0,0,0,0,0,0,0,0,0,0,0,0,0,0,0,0,0,0,0,0,0,0,0,0,0,0,0,0,0,0,0,0,0,0,0,0,0,0,0,0,0,0,0,0,0,0,0,0,0,0,0,0,14.7,0.2299539,0,231.8593,0.08294947,0.002558387,11.67523,0.6559672,1,23.04046
40.045,12.42742,0,15.16526,-5.367401,-11.62839,-6.995468,77,78,-0.1521419,0,14.91291,0.02604438,0,0,-0.8118106,0.4691253,-0.4728747,-3.84559,-35.24523,-18.90662,20.09614,-42.81808,0,1,1276.5,37,19,0,14.90196,14.90196,0.475675,15.53637,0.03,0,313.9789,342.3,0,5.477998,252,73,4221,0.97,15.9903,3.808594,15.9903,-0.00390625,0,0,0,0,0,0,0,0,0,0,0,0,12.94,0,0,0,0,0,0,0,0,0,62,45,0,0,0,0,0,0,0,0,0,0,0,0,0,0,0,0,0,0,0,0,0,0,0,0,0,0,0,0,0,0,0,0,0,0,0,0,0,0,0,0,0,0,0,0,0,0,0,0,0,0,0,0,0,0,0,14.7,0.2299539,0,231.8593,0.08294947,0.002558387,11.67523,0.6559672,1,23.04046
41.045,12.42742,0,15.16526,-14.00854,-5.515579,-9.204758,77,78,-0.1521419,0,14.91291,0.02604438,0,0,-0.2510029,0.01411388,-0.1801199,-4.803623,-38.05615,-30.01346,17.21984,-35.45157,0,1,1276.5,37,19,0,14.90196,14.90196,0.475675,15.53637,0.03,0,313.9789,342.4,0,5.477998,252,73,4221,0.97,15.9903,3.808594,15.9903,-0.00390625,0,0,0,0,0,0,0,0,0,0,0,0,12.94,0,0,0,0,0,0,0,0,0,62,45,0,0,0,0,0,0,0,0,0,0,0,0,0,0,0,0,0,0,0,0,0,0,0,0,0,0,0,0,0,0,0,0,0,0,0,0,0,0,0,0,0,0,0,0,0,0,0,0,0,0,0,0,0,0,0,14.7,0.2299539,0,231.8593,0.08294947,0.002558387,11.67523,0.6559672,1,23.04046
42.045,9.320568,0,15.16526,7.9039,-22.82385,0.3382568,78,79,-0.6931679,0,14.91291,0.02604438,0,0,-1.197577,-0.1027198,1.396702,-2.746491,-35.23008,-21.10146,15.25401,-38.07768,48.62745,1.02,1103,33,19,0,14.90196,14.90196,0.4769453,13.69318,0.05,0,288.1679,342.3,0,5.477603,271,73,4221,0.97,9.700464,3.453125,6.3074,-0.00390625,0,0,0,0,0,0,0,0,0,0,0,0,13.06,0,0,0,0,0,0,0,0,0,64,44,0,0,0,0,0,0,0,0,0,0,0,0,0,0,0,0,0,0,0,0,0,0,0,0,0,0,0,0,0,0,0,0,0,0,0,0,0,0,0,0,0,0,0,0,0,0,0,0,0,0,0,0,0,0,0,14.6,0.1363958,0,140.6567,0.09037919,0.002558387,10.71546,0.7081745,1,23.04046
43.046,9.320568,0,15.16526,-3.44223,-26.36761,-12.62462,78,79,-0.6931679,0,14.91291,0.02604438,0,0,0.5470598,-0.6531625,0.1660728,-3.66927,-34.04937,-14.60117,8.744026,-32.86882,48.62745,1.02,1103,33,19,0,14.90196,14.90196,0.4769453,13.69318,0.05,0,288.1679,342.2,0,5.477603,271,73,4221,0.97,9.700464,3.453125,6.3074,-0.00390625,0,0,0,0,0,0,0,0,0,0,0,0,13.06,0,0,0,0,0,0,0,0,0,64,44,0,0,0,0,0,0,0,0,0,0,0,0,0,0,0,0,0,0,0,0,0,0,0,0,0,0,0,0,0,0,0,0,0,0,0,0,0,0,0,0,0,0,0,0,0,0,0,0,0,0,0,0,0,0,0,14.6,0.1363958,0,140.6567,0.09037919,0.002558387,10.71546,0.7081745,1,23.04046
44.046,9.320568,1.315114,15.16836,-7.567611,-28.13345,-19.84062,78,79,-0.3894519,3.650858,14.91291,0.02913985,235.7799,0.9824164,-1.122565,0.2371708,-0.5913357,-8.678589,-36.51485,-28.09336,3.385162,-18.50372,35.68628,1.02,1087,33,19,0,27.84314,30.19608,0.6794072,13.67087,0.05,3.964693,281.6414,342.2,8.767422,5.478024,271,73,4221,0.97,1.474248,1.140625,1.331752,-0.00390625,0,0,0,0,0,0,0,0,0,0,0,0,13.06,0,0,0,0,0,0,0,0,0,64,44,0,0,0,0,0,0,0,0,0,0,0,0,0,0,0,0,0,0,0,0,0,0,0,0,0,0,0,0,0,0,0,0,0,0,0,0,0,0,0,0,0,0,0,0,0,0,0,0,0,0,0,0,0,0,0,14.6,0.1485569,0,21.3766,0.1034644,0.002862461,10.47277,0.7380143,1,23.04046
45.046,9.320568,1.315114,15.16836,-8.43779,6.461075,-6.997101,78,79,-0.3894519,3.650858,14.91291,0.02913985,235.7799,0.9824164,-0.9126094,0.372422,0.2368609,-4.987762,-39.61903,-31.37827,0.81777,-12.10533,35.68628,1.02,1087,33,19,0,27.84314,30.19608,0.6794072,13.67087,0.05,3.964693,281.6414,342.2,8.767422,5.478024,271,73,4221,0.97,1.474248,1.140625,1.331752,-0.00390625,0,0,0,0,0,0,0,0,0,0,0,0,13.06,0,0,0,0,0,0,0,0,0,64,44,0,0,0,0,0,0,0,0,0,0,0,0,0,0,0,0,0,0,0,0,0,0,0,0,0,0,0,0,0,0,0,0,0,0,0,0,0,0,0,0,0,0,0,0,0,0,0,0,0,0,0,0,0,0,0,14.6,0.1485569,0,21.3766,0.1034644,0.002862461,10.47277,0.7380143,1,23.04046
46.047,11.80605,1.731792,15.17064,14.88324,2.125854,3.825302,78,79,0.3137146,3.644245,14.91291,0.03141728,245.1189,1.293683,-0.4471048,0.0104417,0.7445745,-4.033826,-40.58022,-31.77734,2.968597,-12.34947,81.56863,1.18,1434,33,19,0,38.82353,39.21569,1.237054,20.86399,0.21,5.220857,278.4954,342.3,9.114688,5.47835,271,73,4221,0.97,1.317112,0.8867188,1.360056,-0.00390625,0,0,0,0,0,0,0,0,0,0,0,0,13.06,0,0,0,0,0,0,0,0,0,64,44,0,0,0,0,0,0,0,0,0,0,0,0,0,0,0,0,0,0,0,0,0,0,0,0,0,0,0,0,0,0,0,0,0,0,0,0,0,0,0,0,0,0,0,0,0,0,0,0,0,0,0,0,0,0,0,13,0.1168864,0,19.09812,0.1128108,0.003086177,10.35578,0.7682173,1,23.04046
47.047,16.15565,5.894598,15.17871,1.061981,-8.107437,1.747818,78,79,0.8426818,9.225889,16.15565,0.03949107,609.699,4.403382,-0.4970687,-0.3753292,-0.5743791,-4.287849,-35.9486,-32.31147,0.4220142,-13.34624,61.96078,1.31,1928,33,19,0,38.82353,38.43137,1.396386,31.14187,0.34,17.77053,313.21,342.3,22.67152,5.480559,271,73,4221,0.97,2.050576,1.902344,3.246176,-0.00390625,0,0,0,0,0,0,0,0,0,0,0,0,13.06,0,0,0,0,0,0,0,0,0,64,44,0,0,0,0,0,0,0,0,0,0,0,0,0,0,0,0,0,0,0,0,0,0,0,0,0,0,0,0,0,0,0,0,0,0,0,0,0,0,0,0,0,0,0,0,0,0,0,0,0,0,0,0,0,0,0,13,0.1445819,0,29.73335,0.126085,0.00387928,11.64664,0.7978153,1,23.04046
48.047,16.15565,5.894598,15.17871,38.25615,7.246505,6.313385,78,79,0.8426818,9.225889,16.15565,0.03949107,609.699,4.403382,0.112687,-1.673796,2.336592,-1.489879,-52.10716,-41.75146,2.026667,-4.70369,61.96078,1.31,1928,33,19,0,38.82353,38.43137,1.396386,31.14187,0.34,17.77053,313.21,342.3,22.67152,5.480559,271,73,4221,0.97,2.050576,1.902344,3.246176,-0.00390625,0,0,0,0,0,0,0,0,0,0,0,0,13.06,0,0,0,0,0,0,0,0,0,64,44,0,0,0,0,0,0,0,0,0,0,0,0,0,0,0,0,0,0,0,0,0,0,0,0,0,0,0,0,0,0,0,0,0,0,0,0,0,0,0,0,0,0,0,0,0,0,0,0,0,0,0,0,0,0,0,13,0.1445819,0,29.73335,0.126085,0.00387928,11.64664,0.7978153,1,23.04046
49.047,18.01976,1.70654,15.18097,11.21495,-4.483124,17.31253,78,79,0.764982,4.44894,18.01976,0.04174838,158.2534,1.274819,-0.006186271,-0.6993719,1.179922,-0.2524273,-42.97697,-38.6121,5.994686,-13.16019,0,1.07,1157.5,34,19,0,14.90196,14.90196,0.3958369,15.27113,0.1,5.14473,297.5514,342.4,5.884617,5.480617,271,73,4221,0.97,13.12037,3.597656,15.9903,-0.00390625,0,0,0,0,0,0,0,0,0,0,0,0,13.06,0,0,0,0,0,0,0,0,0,64,44,0,0,0,0,0,0,0,0,0,0,0,0,0,0,0,0,0,0,0,0,0,0,0,0,0,0,0,0,0,0,0,0,0,0,0,0,0,0,0,0,0,0,0,0,0,0,0,0,0,0,0,0,0,0,0,14.7,0.1758342,0,190.2453,0.1403065,0.00410102,11.06438,0.8334521,1,23.04046
50.048,18.01976,1.70654,15.18097,2.397903,-13.01003,15.03477,78,79,0.764982,4.44894,18.01976,0.04174838,158.2534,1.274819,-0.0936875,0.3097646,2.05071,10.64874,-36.89046,-30.85504,9.812887,-19.96074,0,1.07,1157.5,34,19,0,14.90196,14.90196,0.3958369,15.27113,0.1,5.14473,297.5514,342.5,5.884617,5.480617,271,73,4221,0.97,13.12037,3.597656,15.9903,-0.00390625,0,0,0,0,0,0,0,0,0,0,0,0,13.06,0,0,0,0,0,0,0,0,0,64,44,0,0,0,0,0,0,0,0,0,0,0,0,0,0,0,0,0,0,0,0,0,0,0,0,0,0,0,0,0,0,0,0,0,0,0,0,0,0,0,0,0,0,0,0,0,0,0,0,0,0,0,0,0,0,0,14.7,0.1758342,0,190.2453,0.1403065,0.00410102,11.06438,0.8334521,1,23.04046
51.048,14.91291,0,15.18097,13.11996,-1.724426,-3.053162,78,79,-0.09028108,0,18.01976,0.04174838,0,0,1.507276,0.7016055,-0.3975259,14.3819,-34.05929,-28.31958,5.229225,-22.1041,21.17647,0.99,903,34,19,0,14.90196,14.90196,0.3669437,10.98685,0.02,0,270.225,342.5,0,5.479862,271,73,4221,0.97,3.924496,2.769531,2.90116,-0.00390625,0,0,0,0,0,0,0,0,0,0,0,0,13.06,0,0,0,0,0,0,0,0,0,64,44,0,0,0,0,0,0,0,0,0,0,0,0,0,0,0,0,0,0,0,0,0,0,0,0,0,0,0,0,0,0,0,0,0,0,0,0,0,0,0,0,0,0,0,0,0,0,0,0,0,0,0,0,0,0,0,14.7,0.09518687,0,56.90519,0.1544949,0.00410102,10.04825,0.8626171,1,23.04046
52.048,14.91291,0,15.18097,-27.07191,8.91011,17.1272,78,79,-0.09028108,0,18.01976,0.04174838,0,0,1.173391,-0.6569901,-0.6206582,15.79362,-52.45591,-36.17875,22.35111,-26.68646,21.17647,0.99,903,34,19,0,14.90196,14.90196,0.3669437,10.98685,0.02,0,270.225,342.5,0,5.479862,271,73,4221,0.97,3.924496,2.769531,2.90116,-0.00390625,0,0,0,0,0,0,0,0,0,0,0,0,13.06,0,0,0,0,0,0,0,0,0,64,44,0,0,0,0,0,0,0,0,0,0,0,0,0,0,0,0,0,0,0,0,0,0,0,0,0,0,0,0,0,0,0,0,0,0,0,0,0,0,0,0,0,0,0,0,0,0,0,0,0,0,0,0,0,0,0,14.7,0.09518687,0,56.90519,0.1544949,0.00410102,10.04825,0.8626171,1,23.04046
53.048,4.97097,0.4369711,15.18153,4.041992,7.613098,34.93826,78,79,-1.599319,1.312042,18.01976,0.04231602,146.8917,0.3264261,-1.205365,0.05326824,-0.2021629,19.08466,-45.42137,-34.31361,20.56721,-18.69444,28.23529,0.99,1005,34,19,0,53.72549,53.72549,0.6352597,12.22788,0.02,1.317343,267.1904,342.6,5.462134,5.479861,271,73,4221,0.97,1.148264,0.4726563,1.22244,-0.00390625,0,0,0,0,0,0,0,0,0,0,0,0,13.06,0,0,0,0,0,0,0,0,0,64,44,0,0,0,0,0,0,0,0,0,0,0,0,0,0,0,0,0,0,0,0,0,0,0,0,0,0,0,0,0,0,0,0,0,0,0,0,0,0,0,0,0,0,0,0,0,0,0,0,0,0,0,0,0,0,0,13.4,-0.1594177,0,16.64983,0.1583741,0.00415678,9.93541,0.8935032,1,23.04046
54.049,4.97097,0.4369711,15.18153,-1.161118,11.4122,-6.833023,78,79,-1.599319,1.312042,18.01976,0.04231602,146.8917,0.3264261,-0.9891392,0.5188996,-0.4176431,12.0036,-46.62521,-30.51534,26.79031,-26.55096,28.23529,0.99,1005,34,19,0,53.72549,53.72549,0.6352597,12.22788,0.02,1.317343,267.1904,342.6,5.462134,5.479861,271,73,4221,0.97,1.148264,0.4726563,1.22244,-0.00390625,0,0,0,0,0,0,0,0,0,0,0,0,13.06,0,0,0,0,0,0,0,0,0,64,44,0,0,0,0,0,0,0,0,0,0,0,0,0,0,0,0,0,0,0,0,0,0,0,0,0,0,0,0,0,0,0,0,0,0,0,0,0,0,0,0,0,0,0,0,0,0,0,0,0,0,0,0,0,0,0,13.4,-0.1594177,0,16.64983,0.1583741,0.00415678,9.93541,0.8935032,1,23.04046
55.050,9.941939,4.154428,15.1873,2.842178,37.30385,11.93701,78,79,-0.6761314,5.024602,18.01976,0.04808115,698.2739,3.10344,0.1233145,0.3382026,0.2497401,9.046687,-47.6007,-31.82396,26.10409,-24.33479,47.84314,1.6,2495,34,19,0,43.52941,43.52941,4.069984,49.06147,0.63,12.52441,288.5203,342.6,25.96515,5.481502,271,73,4221,0.97,2.712792,2.519531,2.534672,-0.00390625,0,0,0,0,0,0,0,0,0,0,0,0,13.06,0,0,0,0,0,0,0,0,0,64,44,0,0,0,0,0,0,0,0,0,0,0,0,0,0,0,0,0,0,0,0,0,0,0,0,0,0,0,0,0,0,0,0,0,0,0,0,0,0,0,0,0,0,0,0,0,0,0,0,0,0,0,0,0,0,0,13.4,-0.09306489,0,39.33548,0.1666474,0.004723099,10.72856,0.9223585,1,23.04046
56.049,9.941939,4.154428,15.1873,3.993942,4.300415,-8.915131,78,79,-0.6761314,5.024602,18.01976,0.04808115,698.2739,3.10344,-0.06846292,-0.04503942,0.06388284,4.088935,-46.48485,-28.12376,24.11776,-26.25009,47.84314,1.6,2495,34,19,0,43.52941,43.52941,4.069984,49.06147,0.63,12.52441,288.5203,342.6,25.96515,5.481502,271,73,4221,0.97,2.712792,2.519531,2.534672,-0.00390625,0,0,0,0,0,0,0,0,0,0,0,0,13.06,0,0,0,0,0,0,0,0,0,64,44,0,0,0,0,0,0,0,0,0,0,0,0,0,0,0,0,0,0,0,0,0,0,0,0,0,0,0,0,0,0,0,0,0,0,0,0,0,0,0,0,0,0,0,0,0,0,0,0,0,0,0,0,0,0,0,13.4,-0.09306489,0,39.33548,0.1666474,0.004723099,10.72856,0.9223585,1,23.04046
57.049,14.29154,5.179812,15.19401,13.79874,1.034698,-11.93462,78,79,1.157085,8.793573,18.01976,0.05479543,605.6487,3.869422,1.366251,0.2724744,-1.258805,4.148923,-43.33256,-28.36345,22.70987,-28.69943,61.96078,1.46,1777.5,39,19,0,46.66667,48.23529,1.206323,31.89426,0.49,15.61565,308.2978,342.6,22.5209,5.483335,271,73,4221,0.97,1.591856,1.429688,1.604544,-0.00390625,0,0,0,0,0,0,0,0,0,0,0,0,13.06,0,0,0,0,0,0,0,0,0,64,44,0,0,0,0,0,0,0,0,0,0,0,0,0,0,0,0,0,0,0,0,0,0,0,0,0,0,0,0,0,0,0,0,0,0,0,0,0,0,0,0,0,0,0,0,0,0,0,0,0,0,0,0,0,0,0,13,-0.011341,0,23.08191,0.1777354,0.005382655,11.46398,0.9574629,1,23.04046
58.049,14.29154,5.179812,15.19401,-21.47632,-5.680756,-13.58435,78,79,1.157085,8.793573,18.01976,0.05479543,605.6487,3.869422,-0.470608,0.959523,-0.4860316,1.53076,-39.2922,-36.22557,13.57131,-25.85193,61.96078,1.46,1777.5,39,19,0,46.66667,48.23529,1.206323,31.89426,0.49,15.61565,308.2978,342.6,22.5209,5.483335,271,73,4221,0.97,1.591856,1.429688,1.604544,-0.00390625,0,0,0,0,0,0,0,0,0,0,0,0,13.06,0,0,0,0,0,0,0,0,0,64,44,0,0,0,0,0,0,0,0,0,0,0,0,0,0,0,0,0,0,0,0,0,0,0,0,0,0,0,0,0,0,0,0,0,0,0,0,0,0,0,0,0,0,0,0,0,0,0,0,0,0,0,0,0,0,0,13,-0.011341,0,23.08191,0.1777354,0.005382655,11.46398,0.9574629,1,23.04046
59.049,21.74799,6.140643,15.20384,-21.66258,-10.60272,-1.108551,78,79,1.343649,11.95097,21.74799,0.06461729,471.8244,4.587182,-0.1382982,0.0007297828,1.182482,-1.35078,-39.23889,-35.60405,11.00274,-26.95058,68.23529,1.7,1550.5,39,19,0,46.27451,47.05882,1.575216,31.87557,0.73,18.51228,325.6629,342.7,17.54468,5.485778,271,73,4221,0.97,1.250744,0.7421875,1.198528,-0.00390625,0,0,0,0,0,0,0,0,0,0,0,0,13.06,0,0,0,0,0,0,0,0,0,64,44,0,0,0,0,0,0,0,0,0,0,0,0,0,0,0,0,0,0,0,0,0,0,0,0,0,0,0,0,0,0,0,0,0,0,0,0,0,0,0,0,0,0,0,0,0,0,0,0,0,0,0,0,0,0,0,13,0.2060932,0,18.13579,0.1984177,0.006347475,12.1097,0.9875723,1,23.04046
60.049,21.74799,6.140643,15.20384,14.19093,-6.023605,1.581787,78,79,1.343649,11.95097,21.74799,0.06461729,471.8244,4.587182,0.6919998,0.5279557,-0.61769,-0.03809644,-39.2757,-37.29609,9.805136,-25.10608,68.23529,1.7,1550.5,39,19,0,46.27451,47.05882,1.575216,31.87557,0.73,18.51228,325.6629,342.8,17.54468,5.485778,271,73,4221,0.97,1.250744,0.7421875,1.198528,-0.00390625,0,0,0,0,0,0,0,0,0,0,0,0,13.06,0,0,0,0,0,0,0,0,0,64,44,0,0,0,0,0,0,0,0,0,0,0,0,0,0,0,0,0,0,0,0,0,0,0,0,0,0,0,0,0,0,0,0,0,0,0,0,0,0,0,0,0,0,0,0,0,0,0,0,0,0,0,0,0,0,0,13,0.2060932,0,18.13579,0.1984177,0.006347475,12.1097,0.9875723,1,23.04046
61.050,26.71896,5.929653,15.21164,23.07028,-21.57903,-46.13617,78,79,1.410689,9.976746,26.71896,0.07241894,370.8476,4.429568,2.594301,-2.776518,2.512537,19.79005,-56.82072,-45.10875,28.82077,-6.151428,84.31373,1.59,1793.5,39,19,0,45.09804,45.4902,1.583438,34.48544,0.62,17.87621,329.8116,342.9,13.78988,5.487466,291,73,4221,0.97,1.348344,0.9648438,1.301008,-0.00390625,0,0,0,0,0,0,0,0,0,0,0,0,12.96,0,0,0,0,0,0,0,0,0,87,44,0,0,0,0,0,0,0,0,0,0,0,0,0,0,0,0,0,0,0,0,0,0,0,0,0,0,0,0,0,0,0,0,0,0,0,0,0,0,0,0,0,0,0,0,0,0,0,0,0,0,0,0,0,0,0,13,0.4094303,0,19.55099,0.2195767,0.007113845,12.26397,1.025472,1,23.04046
62.050,26.71896,5.929653,15.21164,-8.273788,-22.30272,-6.186447,78,79,1.410689,9.976746,26.71896,0.07241894,370.8476,4.429568,-2.364484,0.6014068,-1.547931,-6.854953,-30.15541,-33.29125,3.52088,-31.0367,84.31373,1.59,1793.5,39,19,0,45.09804,45.4902,1.583438,34.48544,0.62,17.87621,329.8116,343,13.78988,5.487466,291,73,4221,0.97,1.348344,0.9648438,1.301008,-0.00390625,0,0,0,0,0,0,0,0,0,0,0,0,12.96,0,0,0,0,0,0,0,0,0,87,44,0,0,0,0,0,0,0,0,0,0,0,0,0,0,0,0,0,0,0,0,0,0,0,0,0,0,0,0,0,0,0,0,0,0,0,0,0,0,0,0,0,0,0,0,0,0,0,0,0,0,0,0,0,0,0,13,0.4094303,0,19.55099,0.2195767,0.007113845,12.26397,1.025472,1,23.04046
63.050,31.06856,7.642747,15.22466,-5.787415,-11.56438,0.1471405,78,79,1.05261,11.2091,31.06856,0.08543941,411.0684,5.709283,-0.7584294,-0.4345821,0.2137485,-3.557544,-32.20608,-36.26613,5.548557,-28.37946,70.19608,1.57,2057.5,39,19,0,43.52941,44.31372,1.427916,39.064,0.6,23.04069,339.9619,343,15.28548,5.490473,291,73,4221,0.97,2.610312,2.28125,1.928088,-0.00390625,0,0,0,0,0,0,0,0,0,0,0,0,12.96,0,0,0,0,0,0,0,0,0,87,44,0,0,0,0,0,0,0,0,0,0,0,0,0,0,0,0,0,0,0,0,0,0,0,0,0,0,0,0,0,0,0,0,0,0,0,0,0,0,0,0,0,0,0,0,0,0,0,0,0,0,0,0,0,0,0,13,0.4945055,0,37.84953,0.2513206,0.008392869,12.6414,1.054906,1,23.04046
64.050,31.06856,7.642747,15.22466,-34.11351,16.54913,3.811737,78,79,1.05261,11.2091,31.06856,0.08543941,411.0684,5.709283,0.3497399,-0.7091918,-0.411369,-3.099715,-33.67959,-36.96428,7.403463,-27.65987,70.19608,1.57,2057.5,39,19,0,43.52941,44.31372,1.427916,39.064,0.6,23.04069,339.9619,343.1,15.28548,5.490473,291,73,4221,0.97,2.610312,2.28125,1.928088,-0.00390625,0,0,0,0,0,0,0,0,0,0,0,0,12.96,0,0,0,0,0,0,0,0,0,87,44,0,0,0,0,0,0,0,0,0,0,0,0,0,0,0,0,0,0,0,0,0,0,0,0,0,0,0,0,0,0,0,0,0,0,0,0,0,0,0,0,0,0,0,0,0,0,0,0,0,0,0,0,0,0,0,13,0.4945055,0,37.84953,0.2513206,0.008392869,12.6414,1.054906,1,23.04046
65.050,32.93267,4.07423,15.23006,-31.1821,14.18089,-23.02066,78,79,0.6604227,8.349323,32.93267,0.09084688,206.7304,3.043531,-0.09081592,0.3063036,0.1199575,-2.826441,-36.46174,-36.97578,9.279135,-26.83833,76.47059,1.3,1472.5,34,19,0,39.21569,39.60784,0.7969767,23.14919,0.33,12.28264,327.4722,343.2,7.687221,5.491033,291,73,4221,0.97,1.28832,0.8164063,1.296128,-0.00390625,0,0,0,0,0,0,0,0,0,0,0,0,12.96,0,0,0,0,0,0,0,0,0,87,44,0,0,0,0,0,0,0,0,0,0,0,0,0,0,0,0,0,0,0,0,0,0,0,0,0,0,0,0,0,0,0,0,0,0,0,0,0,0,0,0,0,0,0,0,0,0,0,0,0,0,0,0,0,0,0,13,0.4787719,0,18.68064,0.2774186,0.008924055,12.17698,1.090381,1,23.04046
66.052,32.93267,4.07423,15.23006,35.65828,2.085007,-15.12817,78,79,0.6604227,8.349323,32.93267,0.09084688,206.7304,3.043531,0.7946252,-0.6735905,-0.5105556,2.172902,-37.05354,-31.9657,20.82633,-32.83685,76.47059,1.3,1472.5,34,19,0,39.21569,39.60784,0.7969767,23.14919,0.33,12.28264,327.4722,343.4,7.687221,5.491033,291,73,4221,0.97,1.28832,0.8164063,1.296128,-0.00390625,0,0,0,0,0,0,0,0,0,0,0,0,12.96,0,0,0,0,0,0,0,0,0,87,44,0,0,0,0,0,0,0,0,0,0,0,0,0,0,0,0,0,0,0,0,0,0,0,0,0,0,0,0,0,0,0,0,0,0,0,0,0,0,0,0,0,0,0,0,0,0,0,0,0,0,0,0,0,0,0,13,0.4787719,0,18.68064,0.2774186,0.008924055,12.17698,1.090381,1,23.04046
67.051,34.17542,3.361819,15.23542,-14.48712,5.899323,-16.68358,78,79,0.3657463,8.464423,34.17542,0.09620366,164.379,2.511346,0.6265756,0.6384634,-0.2661196,4.08096,-36.62387,-34.49491,18.80524,-29.91571,80.39216,1.19,1198.5,34,19,0,38.03922,38.03922,0.8299742,17.52811,0.22,10.13492,310.4459,343.3,6.112394,5.491235,291,73,4221,0.97,1.262944,0.7578125,1.27368,-0.00390625,0,0,0,0,0,0,0,0,0,0,0,0,12.96,0,0,0,0,0,0,0,0,0,87,44,0,0,0,0,0,0,0,0,0,0,0,0,0,0,0,0,0,0,0,0,0,0,0,0,0,0,0,0,0,0,0,0,0,0,0,0,0,0,0,0,0,0,0,0,0,0,0,0,0,0,0,0,0,0,0,13,0.3991184,0,18.31269,0.3098887,0.009450261,11.54386,1.119773,1,23.04046
68.051,35.41816,3.703637,15.2403,-0.2299194,9.518921,-13.87502,78,79,0.2874833,9.086243,35.41816,0.1010779,174.7383,2.76669,0.2543171,-0.7238817,-0.4405529,0.1412088,-36.48815,-35.4332,14.52349,-28.75275,88.23529,1.23,1230,34,19,0,37.64706,36.47059,1.068604,18.59346,0.26,11.1654,299.0993,343.3,6.497604,5.491499,291,73,4221,0.97,1.334192,0.9140625,1.436184,-0.00390625,0,0,0,0,0,0,0,0,0,0,0,0,12.96,0,0,0,0,0,0,0,0,0,87,44,0,0,0,0,0,0,0,0,0,0,0,0,0,0,0,0,0,0,0,0,0,0,0,0,0,0,0,0,0,0,0,0,0,0,0,0,0,0,0,0,0,0,0,0,0,0,0,0,0,0,0,0,0,0,0,13,0.3832722,0,19.34578,0.337941,0.009929071,11.12194,1.150661,1,23.04046
69.051,35.41816,3.703637,15.2403,0.678009,-4.90625,-10.16919,78,79,0.2874833,9.086243,35.41816,0.1010779,174.7383,2.76669,-1.162876,0.1556341,-0.4059263,-2.712492,-34.81723,-35.52409,7.657402,-26.5675,88.23529,1.23,1230,34,19,0,37.64706,36.47059,1.068604,18.59346,0.26,11.1654,299.0993,343.3,6.497604,5.491499,291,73,4221,0.97,1.334192,0.9140625,1.436184,-0.00390625,0,0,0,0,0,0,0,0,0,0,0,0,12.96,0,0,0,0,0,0,0,0,0,87,44,0,0,0,0,0,0,0,0,0,0,0,0,0,0,0,0,0,0,0,0,0,0,0,0,0,0,0,0,0,0,0,0,0,0,0,0,0,0,0,0,0,0,0,0,0,0,0,0,0,0,0,0,0,0,0,13,0.3832722,0,19.34578,0.337941,0.009929071,11.12194,1.150661,1,23.04046
70.051,36.03953,3.161067,15.24462,1.976181,5.583008,10.66579,78,79,0.2326074,7.736271,36.03953,0.1054046,146.5684,2.36138,-0.313639,-0.6005824,-1.549717,-4.247927,-35.46701,-36.29494,3.375996,-24.21974,61.17647,1.11,1233,34,19,0,27.05882,26.27451,0.8097039,16.82039,0.14,9.529713,286.8526,343.3,5.450112,5.491488,291,73,4221,0.97,1.67872,1.496094,1.927112,-0.00390625,0,0,0,0,0,0,0,0,0,0,0,0,12.96,0,0,0,0,0,0,0,0,0,87,44,0,0,0,0,0,0,0,0,0,0,0,0,0,0,0,0,0,0,0,0,0,0,0,0,0,0,0,0,0,0,0,0,0,0,0,0,0,0,0,0,0,0,0,0,0,0,0,0,0,0,0,0,0,0,0,13,0.4636961,0,24.34144,0.3674522,0.01035409,10.66655,1.180153,1,23.04046
71.051,36.03953,3.161067,15.24462,7.885986,3.688553,-2.800247,78,79,0.2326074,7.736271,36.03953,0.1054046,146.5684,2.36138,-0.1826583,-0.1741549,-0.2459275,-4.858675,-40.95135,-37.47207,6.680435,-23.08481,61.17647,1.11,1233,34,19,0,27.05882,26.27451,0.8097039,16.82039,0.14,9.529713,286.8526,343.2,5.450112,5.491488,291,73,4221,0.97,1.67872,1.496094,1.927112,-0.00390625,0,0,0,0,0,0,0,0,0,0,0,0,12.96,0,0,0,0,0,0,0,0,0,87,44,0,0,0,0,0,0,0,0,0,0,0,0,0,0,0,0,0,0,0,0,0,0,0,0,0,0,0,0,0,0,0,0,0,0,0,0,0,0,0,0,0,0,0,0,0,0,0,0,0,0,0,0,0,0,0,13,0.4636961,0,24.34144,0.3674522,0.01035409,10.66655,1.180153,1,23.04046
72.051,36.03953,1.735075,15.24692,16.17728,-7.960861,-9.07373,78,79,0.0758239,4.357681,36.03953,0.1077058,80.44978,1.296135,-0.7615659,-0.4654177,0.1504055,-4.690453,-39.72132,-36.993,6.992508,-23.11678,20.39216,1.01,1201.5,31,19,0,19.21569,18.03922,0.639456,14.91404,0.04,5.230753,271.9573,343.1,2.991506,5.490796,291,73,4221,0.97,5.5998,3.128906,15.9903,-0.00390625,0,0,0,0,0,0,0,0,0,0,0,0,12.96,0,0,0,0,0,0,0,0,0,87,44,0,0,0,0,0,0,0,0,0,0,0,0,0,0,0,0,0,0,0,0,0,0,0,0,0,0,0,0,0,0,0,0,0,0,0,0,0,0,0,0,0,0,0,0,0,0,0,0,0,0,0,0,0,0,0,14,0.7183007,0,81.1971,0.3960394,0.01058014,10.11267,1.215906,1,23.04046
73.053,36.03953,1.735075,15.24692,15.75192,-14.8532,-4.238586,78,79,0.0758239,4.357681,36.03953,0.1077058,80.44978,1.296135,-0.2301145,0.409798,-0.5964262,-6.079875,-36.22014,-36.30287,3.450171,-24.66997,20.39216,1.01,1201.5,31,19,0,19.21569,18.03922,0.639456,14.91404,0.04,5.230753,271.9573,343.1,2.991506,5.490796,291,73,4221,0.97,5.5998,3.128906,15.9903,-0.00390625,0,0,0,0,0,0,0,0,0,0,0,0,12.96,0,0,0,0,0,0,0,0,0,87,44,0,0,0,0,0,0,0,0,0,0,0,0,0,0,0,0,0,0,0,0,0,0,0,0,0,0,0,0,0,0,0,0,0,0,0,0,0,0,0,0,0,0,0,0,0,0,0,0,0,0,0,0,0,0,0,14,0.7183007,0,81.1971,0.3960394,0.01058014,10.11267,1.215906,1,23.04046
74.052,35.41816,0.5616462,15.24783,-36.21944,20.48267,-2.494766,78,79,-0.06461089,1.429625,36.03953,0.1086103,26.49858,0.4195608,-0.8191391,0.3221092,1.411698,-4.32216,-37.60497,-36.34133,4.738708,-23.98997,29.80392,1.01,1185.5,31,19,0,24.70588,25.09804,0.6310345,14.86058,0.04,1.693202,252.5381,343.1,0.9853434,5.489312,291,73,4221,0.97,1.940776,1.789063,1.830488,-0.00390625,0,0,0,0,0,0,0,0,0,0,0,0,12.96,0,0,0,0,0,0,0,0,0,87,44,0,0,0,0,0,0,0,0,0,0,0,0,0,0,0,0,0,0,0,0,0,0,0,0,0,0,0,0,0,0,0,0,0,0,0,0,0,0,0,0,0,0,0,0,0,0,0,0,0,0,0,0,0,0,0,14,0.5860002,0,28.14125,0.430075,0.01066899,9.39057,1.247455,1,23.04046
75.052,35.41816,0.5616462,15.24783,109.9032,144.5614,38.84883,78,79,-0.06461089,1.429625,36.03953,0.1086103,26.49858,0.4195608,-0.4402408,2.641246,-6.875591,-8.06286,-24.765,-24.31245,7.347803,-35.1022,29.80392,1.01,1185.5,31,19,0,24.70588,25.09804,0.6310345,14.86058,0.04,1.693202,252.5381,343,0.9853434,5.489312,291,73,4221,0.97,1.940776,1.789063,1.830488,-0.00390625,0,0,0,0,0,0,0,0,0,0,0,0,12.96,0,0,0,0,0,0,0,0,0,87,44,0,0,0,0,0,0,0,0,0,0,0,0,0,0,0,0,0,0,0,0,0,0,0,0,0,0,0,0,0,0,0,0,0,0,0,0,0,0,0,0,0,0,0,0,0,0,0,0,0,0,0,0,0,0,0,14,0.5860002,0,28.14125,0.430075,0.01066899,9.39057,1.247455,1,23.04046
76.052,35.41816,1.688841,15.25025,8.148499,-10.12555,1.799484,78,79,-0.06461089,3.300673,36.03953,0.1110333,79.67986,1.261598,0.7247629,1.29662,-2.317775,0.9615603,-22.52283,-43.30828,16.49919,-36.44812,99.60784,1.16,1544,31,19,0,79.21568,78.82353,1.315804,22.2289,0.19,5.091372,241.0851,343,2.962877,5.488565,291,73,4221,0.97,1.23708,0.7421875,1.186328,-0.00390625,0,0,0,0,0,0,0,0,0,0,0,0,12.96,0,0,0,0,0,0,0,0,0,87,44,0,0,0,0,0,0,0,0,0,0,0,0,0,0,0,0,0,0,0,0,0,0,0,0,0,0,0,0,0,0,0,0,0,0,0,0,0,0,0,0,0,0,0,0,0,0,0,0,0,0,0,0,0,0,0,13,0.4739615,0,17.93766,0.4605563,0.010907,8.964694,1.277816,1,23.04046
77.052,35.41816,1.688841,15.25025,-6.543594,-0.1499176,12.16435,78,79,-0.06461089,3.300673,36.03953,0.1110333,79.67986,1.261598,-0.1291691,0.5837396,-1.517821,1.646308,-24.12191,-42.38195,15.84643,-35.72125,99.60784,1.16,1544,31,19,0,79.21568,78.82353,1.315804,22.2289,0.19,5.091372,241.0851,343,2.962877,5.488565,291,73,4221,0.97,1.23708,0.7421875,1.186328,-0.00390625,0,0,0,0,0,0,0,0,0,0,0,0,12.96,0,0,0,0,0,0,0,0,0,87,44,0,0,0,0,0,0,0,0,0,0,0,0,0,0,0,0,0,0,0,0,0,0,0,0,0,0,0,0,0,0,0,0,0,0,0,0,0,0,0,0,0,0,0,0,0,0,0,0,0,0,0,0,0,0,0,13,0.4739615,0,17.93766,0.4605563,0.010907,8.964694,1.277816,1,23.04046
78.052,39.76776,26.51298,15.28589,-6.269714,-11.66147,-3.041687,78,79,0.541505,29.26315,39.76776,0.1466699,1114.072,19.80572,0.7496696,-0.419343,-0.9455941,4.108946,-24.58675,-41.46453,19.18403,-36.02051,99.60784,2.35,2734,31,19,0,86.27451,85.4902,4.745641,79.74053,1.38,79.92903,297.8223,342.9,41.42649,5.499691,291,73,4221,0.97,1.284904,0.9257813,1.216584,-0.00390625,0,0,0,0,0,0,0,0,0,0,0,0,12.96,0,0,0,0,0,0,0,0,0,87,44,0,0,0,0,0,0,0,0,0,0,0,0,0,0,0,0,0,0,0,0,0,0,0,0,0,0,0,0,0,0,0,0,0,0,0,0,0,0,0,0,0,0,0,0,0,0,0,0,0,0,0,0,0,0,0,13,0.4255715,0,18.63111,0.4924747,0.01440766,11.07445,1.30802,1,23.04046
79.052,39.76776,26.51298,15.28589,4.625977,7.236618,7.180358,78,79,0.541505,29.26315,39.76776,0.1466699,1114.072,19.80572,-1.806192,-1.097683,3.410257,5.667314,-26.17909,-39.55614,21.41569,-37.12889,99.60784,2.35,2734,31,19,0,86.27451,85.4902,4.745641,79.74053,1.38,79.92903,297.8223,343,41.42649,5.499691,291,73,4221,0.97,1.284904,0.9257813,1.216584,-0.00390625,0,0,0,0,0,0,0,0,0,0,0,0,12.96,0,0,0,0,0,0,0,0,0,87,44,0,0,0,0,0,0,0,0,0,0,0,0,0,0,0,0,0,0,0,0,0,0,0,0,0,0,0,0,0,0,0,0,0,0,0,0,0,0,0,0,0,0,0,0,0,0,0,0,0,0,0,0,0,0,0,13,0.4255715,0,18.63111,0.4924747,0.01440766,11.07445,1.30802,1,23.04046
80.053,39.76776,26.51298,15.28589,-8.286362,-3.294525,-1.542923,78,79,0.541505,29.26315,39.76776,0.1466699,1114.072,19.80572,-0.6364766,0.01317809,0.1726484,5.039552,-26.41888,-39.02955,22.02193,-37.11966,99.60784,2.35,2734,31,19,0,86.27451,85.4902,4.745641,79.74053,1.38,79.92903,297.8223,343,41.42649,5.499691,291,73,4221,0.97,1.284904,0.9257813,1.216584,-0.00390625,0,0,0,0,0,0,0,0,0,0,0,0,12.96,0,0,0,0,0,0,0,0,0,87,44,0,0,0,0,0,0,0,0,0,0,0,0,0,0,0,0,0,0,0,0,0,0,0,0,0,0,0,0,0,0,0,0,0,0,0,0,0,0,0,0,0,0,0,0,0,0,0,0,0,0,0,0,0,0,0,13,0.4255715,0,18.63111,0.4924747,0.01440766,11.07445,1.30802,1,23.04046
81.053,49.08833,35.49252,15.33351,11.68051,0.6313171,-4.70198,81,84,1.692416,31.10268,49.08833,0.1942878,1208.215,26.51362,0.1199871,0.09431744,1.350464,6.11855,-27.59487,-37.92997,22.49328,-37.14343,99.60784,2.44,3443.5,37,19,0,14.90196,14.90196,3.587749,104.2804,1.47,106.9998,365.067,343.1,44.92721,5.514704,310,73,4221,0.97,15.9903,4.09375,15.9903,-0.00390625,0,0,0,0,0,0,0,0,0,0,0,0,14.56,0,0,0,0,0,0,0,0,0,110,40,0,0,0,0,0,0,0,0,0,0,0,0,0,0,0,0,0,0,0,0,0,0,0,0,0,0,0,0,0,0,0,0,0,0,0,0,0,0,0,0,0,0,0,0,0,0,0,0,0,0,0,0,0,0,0,14.7,0.5303071,0,231.8593,0.5321977,0.01908525,13.57493,1.362818,1,23.04046
82.052,49.08833,35.49252,15.33351,-9.483536,36.67288,13.26051,81,84,1.692416,31.10268,49.08833,0.1942878,1208.215,26.51362,-2.339705,-0.3803295,0.482113,4.924669,-27.5436,-34.96789,22.74192,-38.43222,99.60784,2.44,3443.5,37,19,0,14.90196,14.90196,3.587749,104.2804,1.47,106.9998,365.067,343.2,44.92721,5.514704,310,73,4221,0.97,15.9903,4.09375,15.9903,-0.00390625,0,0,0,0,0,0,0,0,0,0,0,0,14.56,0,0,0,0,0,0,0,0,0,110,40,0,0,0,0,0,0,0,0,0,0,0,0,0,0,0,0,0,0,0,0,0,0,0,0,0,0,0,0,0,0,0,0,0,0,0,0,0,0,0,0,0,0,0,0,0,0,0,0,0,0,0,0,0,0,0,14.7,0.5303071,0,231.8593,0.5321977,0.01908525,13.57493,1.362818,1,23.04046
83.053,50.33107,12.5597,15.36449,-19.60448,-15.65535,-31.72708,81,84,1.235292,11.84193,50.33107,0.225272,416.9931,9.382344,-0.4776798,0.1858789,1.476831,-3.523063,-33.89422,-35.99254,0.619482,-21.53508,0,1.21,3200.5,37,19,0,14.90196,14.90196,1.02789,47.13375,0.24,37.8639,371.5725,343.3,15.50579,5.521892,310,73,4221,0.97,15.9903,4.085938,15.9903,-0.00390625,0,0,0,0,0,0,0,0,0,0,0,0,14.56,0,0,0,0,0,0,0,0,0,110,40,0,0,0,0,0,0,0,0,0,0,0,0,0,0,0,0,0,0,0,0,0,0,0,0,0,0,0,0,0,0,0,0,0,0,0,0,0,0,0,0,0,0,0,0,0,0,0,0,0,0,0,0,0,0,0,14.7,0.462108,0,231.8593,0.6062665,0.02212888,13.81684,1.393096,1,23.04046
84.055,50.33107,12.5597,15.36449,41.94382,9.094864,5.710068,81,84,1.235292,11.84193,50.33107,0.225272,416.9931,9.382344,-0.3376081,-1.480687,-1.558179,-6.077851,-35.07972,-35.73861,-1.230362,-20.29684,0,1.21,3200.5,37,19,0,14.90196,14.90196,1.02789,47.13375,0.24,37.8639,371.5725,343.3,15.50579,5.521892,310,73,4221,0.97,15.9903,4.085938,15.9903,-0.00390625,0,0,0,0,0,0,0,0,0,0,0,0,14.56,0,0,0,0,0,0,0,0,0,110,40,0,0,0,0,0,0,0,0,0,0,0,0,0,0,0,0,0,0,0,0,0,0,0,0,0,0,0,0,0,0,0,0,0,0,0,0,0,0,0,0,0,0,0,0,0,0,0,0,0,0,0,0,0,0,0,14.7,0.462108,0,231.8593,0.6062665,0.02212888,13.81684,1.393096,1,23.04046
85.053,46.60284,0,15.36449,-0.04310608,5.28186,-3.110992,81,84,-0.3781293,0,50.33107,0.225272,0,0,-0.01652784,-0.6014698,-1.17498,-3.973379,-32.20116,-36.23943,5.359037,-25.82335,0,1.23,2843,37,19,0,14.90196,14.90196,1.339032,42.5609,0.26,0,349.9081,343.3,0,5.519889,310,73,4221,0.97,15.9903,4.03125,15.9903,-0.00390625,0,0,0,0,0,0,0,0,0,0,0,0,14.56,0,0,0,0,0,0,0,0,0,110,40,0,0,0,0,0,0,0,0,0,0,0,0,0,0,0,0,0,0,0,0,0,0,0,0,0,0,0,0,0,0,0,0,0,0,0,0,0,0,0,0,0,0,0,0,0,0,0,0,0,0,0,0,0,0,0,14.7,0.3225966,0,231.8593,0.6438032,0.02212888,13.01125,1.424652,1,23.04046
86.053,46.60284,0,15.36449,-9.473114,3.732055,-26.62572,81,84,-0.3781293,0,50.33107,0.225272,0,0,-0.1260529,0.1358558,0.7396766,-4.127661,-38.62767,-36.87023,4.672937,-22.23251,0,1.23,2843,37,19,0,14.90196,14.90196,1.339032,42.5609,0.26,0,349.9081,343.4,0,5.519889,310,73,4221,0.97,15.9903,4.03125,15.9903,-0.00390625,0,0,0,0,0,0,0,0,0,0,0,0,14.56,0,0,0,0,0,0,0,0,0,110,40,0,0,0,0,0,0,0,0,0,0,0,0,0,0,0,0,0,0,0,0,0,0,0,0,0,0,0,0,0,0,0,0,0,0,0,0,0,0,0,0,0,0,0,0,0,0,0,0,0,0,0,0,0,0,0,14.7,0.3225966,0,231.8593,0.6438032,0.02212888,13.01125,1.424652,1,23.04046
87.053,44.11736,0,15.36449,-27.11516,6.444427,14.5043,81,84,-0.7558076,0,50.33107,0.225272,0,0,-0.7040231,-0.6297285,1.904829,-7.254709,-46.96518,-33.36478,12.77071,-24.24934,0,1.18,1855,37,19,0,14.90196,14.90196,1.008024,26.64126,0.21,0,330.7179,343.6,0,5.517898,310,73,4221,0.97,15.9903,3.890625,15.9903,-0.00390625,0,0,0,0,0,0,0,0,0,0,0,0,14.56,0,0,0,0,0,0,0,0,0,110,40,0,0,0,0,0,0,0,0,0,0,0,0,0,0,0,0,0,0,0,0,0,0,0,0,0,0,0,0,0,0,0,0,0,0,0,0,0,0,0,0,0,0,0,0,0,0,0,0,0,0,0,0,0,0,0,14.7,0.2377972,0,231.8593,0.6811605,0.02212888,12.29767,1.454095,1,23.04046
88.053,44.11736,0,15.36449,-60.555,-96.76184,11.67094,81,84,-0.7558076,0,50.33107,0.225272,0,0,2.614121,1.023455,-2.138874,1.816686,-30.00649,-34.93141,16.76442,-34.37288,0,1.18,1855,37,19,0,14.90196,14.90196,1.008024,26.64126,0.21,0,330.7179,343.7,0,5.517898,310,73,4221,0.97,15.9903,3.890625,15.9903,-0.00390625,0,0,0,0,0,0,0,0,0,0,0,0,14.56,0,0,0,0,0,0,0,0,0,110,40,0,0,0,0,0,0,0,0,0,0,0,0,0,0,0,0,0,0,0,0,0,0,0,0,0,0,0,0,0,0,0,0,0,0,0,0,0,0,0,0,0,0,0,0,0,0,0,0,0,0,0,0,0,0,0,14.7,0.2377972,0,231.8593,0.6811605,0.02212888,12.29767,1.454095,1,23.04046
89.053,41.63187,0,15.36449,30.72023,31.99988,-22.7641,81,84,-0.6083173,0,50.33107,0.225272,0,0,0.4428489,-0.5241792,-0.01983509,7.088669,-42.84766,-37.89544,30.56207,-20.04762,0,1.15,1777,31,19,0,16.07843,14.90196,1.393876,24.87219,0.18,0,315.5148,343.7,0,5.516149,310,73,4221,0.97,10.68818,3.429688,3.082208,-0.00390625,0,0,0,0,0,0,0,0,0,0,0,0,14.56,0,0,0,0,0,0,0,0,0,110,40,0,0,0,0,0,0,0,0,0,0,0,0,0,0,0,0,0,0,0,0,0,0,0,0,0,0,0,0,0,0,0,0,0,0,0,0,0,0,0,0,0,0,0,0,0,0,0,0,0,0,0,0,0,0,0,13.3,0.1434365,0,154.9785,0.7139823,0.02212888,11.73234,1.491608,1,23.04046
90.053,41.63187,0,15.36449,10.65536,-1.394211,2.552048,81,84,-0.6083173,0,50.33107,0.225272,0,0,0.1865728,-0.09766164,-2.304948,-7.526404,-35.82635,-35.54153,12.66389,-29.27281,0,1.15,1777,31,19,0,16.07843,14.90196,1.393876,24.87219,0.18,0,315.5148,343.8,0,5.516149,310,73,4221,0.97,10.68818,3.429688,3.082208,-0.00390625,0,0,0,0,0,0,0,0,0,0,0,0,14.56,0,0,0,0,0,0,0,0,0,110,40,0,0,0,0,0,0,0,0,0,0,0,0,0,0,0,0,0,0,0,0,0,0,0,0,0,0,0,0,0,0,0,0,0,0,0,0,0,0,0,0,0,0,0,0,0,0,0,0,0,0,0,0,0,0,0,13.3,0.1434365,0,154.9785,0.7139823,0.02212888,11.73234,1.491608,1,23.04046
91.054,40.38913,0,15.36449,-5.817337,4.769638,-7.822281,81,84,-0.4384483,0,50.33107,0.225272,0,0,-0.1207733,-0.6125994,-0.560357,-5.965861,-35.52988,-34.50584,14.34591,-29.6447,40.78431,1.06,1341.5,31,19,0,26.66667,26.27451,0.4697422,17.64856,0.09,0,298.5251,343.8,0,5.513986,310,73,4221,0.97,1.904664,1.757813,1.957368,-0.00390625,0,0,0,0,0,0,0,0,0,0,0,0,14.56,0,0,0,0,0,0,0,0,0,110,40,0,0,0,0,0,0,0,0,0,0,0,0,0,0,0,0,0,0,0,0,0,0,0,0,0,0,0,0,0,0,0,0,0,0,0,0,0,0,0,0,0,0,0,0,0,0,0,0,0,0,0,0,0,0,0,13.3,0.1035861,0,27.61763,0.7546166,0.02212888,11.10058,1.521075,1,23.04046
92.054,40.38913,0,15.36449,-38.80191,-21.93367,37.9464,81,84,-0.4384483,0,50.33107,0.225272,0,0,-0.5481149,0.04190211,0.7309367,-8.213562,-37.77715,-33.8014,11.55165,-28.81461,40.78431,1.06,1341.5,31,19,0,26.66667,26.27451,0.4697422,17.64856,0.09,0,298.5251,343.9,0,5.513986,310,73,4221,0.97,1.904664,1.757813,1.957368,-0.00390625,0,0,0,0,0,0,0,0,0,0,0,0,14.56,0,0,0,0,0,0,0,0,0,110,40,0,0,0,0,0,0,0,0,0,0,0,0,0,0,0,0,0,0,0,0,0,0,0,0,0,0,0,0,0,0,0,0,0,0,0,0,0,0,0,0,0,0,0,0,0,0,0,0,0,0,0,0,0,0,0,13.3,0.1035861,0,27.61763,0.7546166,0.02212888,11.10058,1.521075,1,23.04046
93.054,39.76776,1.212821,15.36609,27.5741,15.02499,-40.32281,81,84,-0.2018337,3.354541,50.33107,0.2268686,50.96259,0.9060016,1.436787,-1.147666,-1.391788,-2.066433,-34.93473,-36.14155,13.68461,-28.05466,54.5098,1.05,1091,31,19,0,25.88235,26.27451,0.6102254,14.21762,0.08,3.656309,288.5971,343.9,1.895032,5.512883,310,73,4221,0.97,1.882704,1.726563,1.824144,-0.00390625,0,0,0,0,0,0,0,0,0,0,0,0,14.56,0,0,0,0,0,0,0,0,0,110,40,0,0,0,0,0,0,0,0,0,0,0,0,0,0,0,0,0,0,0,0,0,0,0,0,0,0,0,0,0,0,0,0,0,0,0,0,0,0,0,0,0,0,0,0,0,0,0,0,0,0,0,0,0,0,0,13,0.087905,0,27.29921,0.7861086,0.02228572,10.73141,1.551591,1,23.04046
94.054,39.14639,1.496537,15.36814,21.45685,10.70294,-16.19548,81,84,-0.1540279,3.432872,50.33107,0.2289212,63.88245,1.117943,-0.9403761,1.341658,-1.044014,-5.32059,-33.40979,-32.79167,11.32414,-30.25523,45.88235,1.06,1315.5,31,19,0,25.09804,24.70588,0.6927321,17.30651,0.09,4.511631,279.7695,344.1,2.375454,5.51191,310,73,4221,0.97,2.013488,1.878906,2.474648,-0.00390625,0,0,0,0,0,0,0,0,0,0,0,0,14.56,0,0,0,0,0,0,0,0,0,110,40,0,0,0,0,0,0,0,0,0,0,0,0,0,0,0,0,0,0,0,0,0,0,0,0,0,0,0,0,0,0,0,0,0,0,0,0,0,0,0,0,0,0,0,0,0,0,0,0,0,0,0,0,0,0,0,13,0.08570266,0,29.19558,0.8182492,0.02248734,10.40316,1.580313,1,23.04046
95.056,39.14639,1.496537,15.36814,-34.40881,-14.74976,20.10297,81,84,-0.1540279,3.432872,50.33107,0.2289212,63.88245,1.117943,0.1900158,0.722554,0.7098396,0.06357206,-38.86475,-36.64056,20.37069,-28.2356,45.88235,1.06,1315.5,31,19,0,25.09804,24.70588,0.6927321,17.30651,0.09,4.511631,279.7695,344.2,2.375454,5.51191,310,73,4221,0.97,2.013488,1.878906,2.474648,-0.00390625,0,0,0,0,0,0,0,0,0,0,0,0,14.56,0,0,0,0,0,0,0,0,0,110,40,0,0,0,0,0,0,0,0,0,0,0,0,0,0,0,0,0,0,0,0,0,0,0,0,0,0,0,0,0,0,0,0,0,0,0,0,0,0,0,0,0,0,0,0,0,0,0,0,0,0,0,0,0,0,0,13,0.08570266,0,29.19558,0.8182492,0.02248734,10.40316,1.580313,1,23.04046
96.054,38.52501,1.259675,15.36978,13.89874,8.480408,0.5830231,81,84,-0.1553706,3.018015,50.33107,0.2305613,54.63884,0.9410022,0.1938492,-0.7808773,-1.346215,-2.412647,-34.9798,-33.99234,15.67474,-29.6956,15.68627,1.03,1259.5,29,19,0,19.60784,19.21569,0.5745122,16.10083,0.06,3.797559,271.8103,344.1,2.031732,5.510904,310,73,4221,0.97,5.00444,3.046875,5.765232,-0.00390625,0,0,0,0,0,0,0,0,0,0,0,0,14.56,0,0,0,0,0,0,0,0,0,110,40,0,0,0,0,0,0,0,0,0,0,0,0,0,0,0,0,0,0,0,0,0,0,0,0,0,0,0,0,0,0,0,0,0,0,0,0,0,0,0,0,0,0,0,0,0,0,0,0,0,0,0,0,0,0,0,13,0.06975306,0,72.56438,0.8482434,0.02264846,10.1072,1.615303,1,23.04046
97.054,38.52501,1.259675,15.36978,15.40479,15.21814,-21.39536,81,84,-0.1553706,3.018015,50.33107,0.2305613,54.63884,0.9410022,-0.6175426,-0.3733447,-0.5936297,-1.24763,-33.42492,-34.22832,15.45263,-30.50026,15.68627,1.03,1259.5,29,19,0,19.60784,19.21569,0.5745122,16.10083,0.06,3.797559,271.8103,344.2,2.031732,5.510904,310,73,4221,0.97,5.00444,3.046875,5.765232,-0.00390625,0,0,0,0,0,0,0,0,0,0,0,0,14.56,0,0,0,0,0,0,0,0,0,110,40,0,0,0,0,0,0,0,0,0,0,0,0,0,0,0,0,0,0,0,0,0,0,0,0,0,0,0,0,0,0,0,0,0,0,0,0,0,0,0,0,0,0,0,0,0,0,0,0,0,0,0,0,0,0,0,13,0.06975306,0,72.56438,0.8482434,0.02264846,10.1072,1.615303,1,23.04046
98.054,37.28227,0.4398406,15.37047,-3.540298,-0.7649536,-4.424973,81,84,-0.2120485,1.074705,50.33107,0.2312508,19.71418,0.3285697,-1.481768,-0.3932207,0.00835875,-5.772535,-34.40893,-34.37376,10.91902,-29.22835,36.47059,1.02,1235,29,19,0,27.45098,30.58824,0.6088206,15.73784,0.05,1.325993,261.8221,344.4,0.7330672,5.509293,310,73,4221,0.97,1.910032,1.757813,1.791936,-0.00390625,0,0,0,0,0,0,0,0,0,0,0,0,14.56,0,0,0,0,0,0,0,0,0,110,40,0,0,0,0,0,0,0,0,0,0,0,0,0,0,0,0,0,0,0,0,0,0,0,0,0,0,0,0,0,0,0,0,0,0,0,0,0,0,0,0,0,0,0,0,0,0,0,0,0,0,0,0,0,0,0,13,-0.06500806,0,27.69546,0.8832366,0.02271619,9.735791,1.645035,1,23.04046
99.054,37.28227,0.4398406,15.37047,-3.07254,6.785645,-10.58733,81,84,-0.2120485,1.074705,50.33107,0.2312508,19.71418,0.3285697,0.3531838,0.2987039,-0.9494843,-2.927462,-35.74703,-35.25931,15.61012,-30.13454,36.47059,1.02,1235,29,19,0,27.45098,30.58824,0.6088206,15.73784,0.05,1.325993,261.8221,344.4,0.7330672,5.509293,310,73,4221,0.97,1.910032,1.757813,1.791936,-0.00390625,0,0,0,0,0,0,0,0,0,0,0,0,14.56,0,0,0,0,0,0,0,0,0,110,40,0,0,0,0,0,0,0,0,0,0,0,0,0,0,0,0,0,0,0,0,0,0,0,0,0,0,0,0,0,0,0,0,0,0,0,0,0,0,0,0,0,0,0,0,0,0,0,0,0,0,0,0,0,0,0,13,-0.06500806,0,27.69546,0.8832366,0.02271619,9.735791,1.645035,1,23.04046
100.054,36.6609,1.35461,15.37225,-9.183273,3.317581,-7.46666,81,84,-0.2110966,3.263606,50.33107,0.2330349,61.74432,1.011921,-0.08930478,1.170929,-1.525178,-3.517842,-35.2406,-36.2336,14.25758,-29.60289,63.13726,1.11,1252.5,29,19,0,32.15686,31.76471,0.8224636,17.36916,0.14,4.083762,255.4859,344.5,2.295948,5.508399,330,73,4221,0.97,1.501576,1.230469,1.502552,-0.00390625,0,0,0,0,0,0,0,0,0,0,0,0,12.94,0,0,0,0,0,0,0,0,0,74,35,0,0,0,0,0,0,0,0,0,0,0,0,0,0,0,0,0,0,0,0,0,0,0,0,0,0,0,0,0,0,0,0,0,0,0,0,0,0,0,0,0,0,0,0,0,0,0,0,0,0,0,0,0,0,0,13,-0.3109495,0,21.77285,0.9121243,0.02289145,9.500185,1.682622,1,23.04046
101.055,36.6609,1.35461,15.37225,-9.349121,-29.09721,-6.94693,81,84,-0.2110966,3.263606,50.33107,0.2330349,61.74432,1.011921,-1.18851,-1.450052,2.856752,-9.940452,-41.15112,-35.08636,15.05958,-31.79523,63.13726,1.11,1252.5,29,19,0,32.15686,31.76471,0.8224636,17.36916,0.14,4.083762,255.4859,344.6,2.295948,5.508399,330,73,4221,0.97,1.501576,1.230469,1.502552,-0.00390625,0,0,0,0,0,0,0,0,0,0,0,0,12.94,0,0,0,0,0,0,0,0,0,74,35,0,0,0,0,0,0,0,0,0,0,0,0,0,0,0,0,0,0,0,0,0,0,0,0,0,0,0,0,0,0,0,0,0,0,0,0,0,0,0,0,0,0,0,0,0,0,0,0,0,0,0,0,0,0,0,13,-0.3109495,0,21.77285,0.9121243,0.02289145,9.500185,1.682622,1,23.04046
102.057,37.28227,2.535419,15.37653,74.0759,40.07544,-1.673508,81,84,-0.01703831,6.081773,50.33107,0.2373145,113.6405,1.894009,0.1844189,-1.27096,1.654701,-3.968163,-60.25291,-42.96149,-2.412733,-10.14958,62.35294,1.14,1258,29,19,0,31.76471,31.76471,0.8767956,17.91693,0.17,7.643563,249.9082,344.7,4.225696,5.507942,330,73,4221,0.97,1.569896,1.339844,1.682136,-0.00390625,0,0,0,0,0,0,0,0,0,0,0,0,12.94,0,0,0,0,0,0,0,0,0,74,35,0,0,0,0,0,0,0,0,0,0,0,0,0,0,0,0,0,0,0,0,0,0,0,0,0,0,0,0,0,0,0,0,0,0,0,0,0,0,0,0,0,0,0,0,0,0,0,0,0,0,0,0,0,0,0,13,-0.3154741,0,22.76349,0.9496064,0.02331183,9.292779,1.711667,1,23.04046
103.055,37.28227,2.535419,15.37653,21.42059,3.284531,5.476196,81,84,-0.01703831,6.081773,50.33107,0.2373145,113.6405,1.894009,-0.2844982,-0.02368428,-0.8909474,1.598826,-41.64117,-42.69909,7.143042,-17.0578,62.35294,1.14,1258,29,19,0,31.76471,31.76471,0.8767956,17.91693,0.17,7.643563,249.9082,344.7,4.225696,5.507942,330,73,4221,0.97,1.569896,1.339844,1.682136,-0.00390625,0,0,0,0,0,0,0,0,0,0,0,0,12.94,0,0,0,0,0,0,0,0,0,74,35,0,0,0,0,0,0,0,0,0,0,0,0,0,0,0,0,0,0,0,0,0,0,0,0,0,0,0,0,0,0,0,0,0,0,0,0,0,0,0,0,0,0,0,0,0,0,0,0,0,0,0,0,0,0,0,13,-0.3154741,0,22.76349,0.9496064,0.02331183,9.292779,1.711667,1,23.04046
104.055,37.28227,2.11337,15.37927,17.90663,-5.926208,-1.071365,81,84,0.06175777,5.085562,50.33107,0.2400498,94.72375,1.578729,-1.422753,0.6718336,-0.7811186,-6.710853,-38.96192,-38.55481,-2.037586,-20.50449,56.86274,1.09,1254,32,19,0,29.80392,29.80392,0.7368006,17.07662,0.12,6.371205,245.2782,344.7,3.52228,5.50738,330,73,4221,0.97,1.649928,1.457031,1.72508,1.4375,0,0,0,0,0,0,0,0,0,0,0,0,12.94,0,0,0,0,0,0,0,0,0,74,35,0,0,0,0,0,0,0,0,0,0,0,0,0,0,0,0,0,0,0,0,0,0,0,0,0,0,0,0,0,0,0,0,0,0,0,0,0,0,0,0,0,0,0,0,0,0,0,0,0,0,0,0,0,0,0,13,-0.2229721,0,23.92396,0.9786838,0.02358053,9.120612,1.746487,1,23.04046
105.055,37.28227,2.11337,15.37927,-12.18303,11.14963,-3.086044,81,84,0.06175777,5.085562,50.33107,0.2400498,94.72375,1.578729,-0.9394178,0.05323648,0.5432145,-5.380006,-39.19355,-38.86459,-0.5852051,-19.27582,56.86274,1.09,1254,32,19,0,29.80392,29.80392,0.7368006,17.07662,0.12,6.371205,245.2782,344.8,3.52228,5.50738,330,73,4221,0.97,1.649928,1.457031,1.72508,1.4375,0,0,0,0,0,0,0,0,0,0,0,0,12.94,0,0,0,0,0,0,0,0,0,74,35,0,0,0,0,0,0,0,0,0,0,0,0,0,0,0,0,0,0,0,0,0,0,0,0,0,0,0,0,0,0,0,0,0,0,0,0,0,0,0,0,0,0,0,0,0,0,0,0,0,0,0,0,0,0,0,13,-0.2229721,0,23.92396,0.9786838,0.02358053,9.120612,1.746487,1,23.04046
106.055,37.28227,1.953916,15.38234,-10.79132,2.794647,-5.210556,81,84,7.008283E-16,4.690635,50.33107,0.2431242,87.57684,1.459614,0.4159548,-0.5397174,0.2106113,-4.272167,-41.98919,-40.25438,1.686028,-18.2997,58.82353,1.09,1257,32,19,0,29.41176,29.41176,0.7568039,16.94919,0.12,5.890498,239.8611,344.9,3.256525,5.506629,330,73,4221,0.97,1.643584,1.449219,1.770952,1.425781,0,0,0,0,0,0,0,0,0,0,0,0,12.94,0,0,0,0,0,0,0,0,0,74,35,0,0,0,0,0,0,0,0,0,0,0,0,0,0,0,0,0,0,0,0,0,0,0,0,0,0,0,0,0,0,0,0,0,0,0,0,0,0,0,0,0,0,0,0,0,0,0,0,0,0,0,0,0,0,0,13,-0.1643126,0,23.83197,1.013604,0.02388253,8.919178,1.775945,1,23.04046
107.055,37.28227,1.953916,15.38234,2.793411,8.12851,-17.32909,81,84,7.008283E-16,4.690635,50.33107,0.2431242,87.57684,1.459614,-0.908589,0.3333208,-0.1772692,-7.189916,-38.06905,-37.17937,-2.209225,-21.49902,58.82353,1.09,1257,32,19,0,29.41176,29.41176,0.7568039,16.94919,0.12,5.890498,239.8611,345,3.256525,5.506629,330,73,4221,0.97,1.643584,1.449219,1.770952,1.425781,0,0,0,0,0,0,0,0,0,0,0,0,12.94,0,0,0,0,0,0,0,0,0,74,35,0,0,0,0,0,0,0,0,0,0,0,0,0,0,0,0,0,0,0,0,0,0,0,0,0,0,0,0,0,0,0,0,0,0,0,0,0,0,0,0,0,0,0,0,0,0,0,0,0,0,0,0,0,0,0,13,-0.1643126,0,23.83197,1.013604,0.02388253,8.919178,1.775945,1,23.04046
108.056,37.28227,1.907659,15.38486,7.35521,-19.49092,0.01721191,81,84,7.008283E-16,4.618166,50.33107,0.2456463,85.50356,1.425059,-1.182186,-0.1957525,1.498118,-6.688845,-40.26175,-37.66509,-5.927292,-18.81564,54.11765,1.07,1246.5,32,19,0,27.45098,30.58824,0.7125531,16.49921,0.1,5.751047,235.4963,345.1,3.17943,5.505968,330,73,4221,0.97,1.61528,1.40625,1.61528,1.417969,0,0,0,0,0,0,0,0,0,0,0,0,12.94,0,0,0,0,0,0,0,0,0,74,35,0,0,0,0,0,0,0,0,0,0,0,0,0,0,0,0,0,0,0,0,0,0,0,0,0,0,0,0,0,0,0,0,0,0,0,0,0,0,0,0,0,0,0,0,0,0,0,0,0,0,0,0,0,0,0,13,-0.1013086,0,23.42156,1.0431,0.02413028,8.756876,1.806698,1,23.04046
109.055,37.28227,1.907659,15.38486,2.251617,11.76192,2.679443,81,84,7.008283E-16,4.618166,50.33107,0.2456463,85.50356,1.425059,0.2569718,-0.8770121,-1.426228,-4.364081,-39.57227,-41.64624,1.614708,-21.74323,54.11765,1.07,1246.5,32,19,0,27.45098,30.58824,0.7125531,16.49921,0.1,5.751047,235.4963,345.2,3.17943,5.505968,330,73,4221,0.97,1.61528,1.40625,1.61528,1.417969,0,0,0,0,0,0,0,0,0,0,0,0,12.94,0,0,0,0,0,0,0,0,0,74,35,0,0,0,0,0,0,0,0,0,0,0,0,0,0,0,0,0,0,0,0,0,0,0,0,0,0,0,0,0,0,0,0,0,0,0,0,0,0,0,0,0,0,0,0,0,0,0,0,0,0,0,0,0,0,0,13,-0.1013086,0,23.42156,1.0431,0.02413028,8.756876,1.806698,1,23.04046
110.055,37.28227,2.163713,15.38782,4.900635,0.9758453,0.4562683,81,84,7.008283E-16,5.219193,50.33107,0.2485982,96.98018,1.616336,-0.1078907,-0.5122975,0.4385267,-4.271897,-41.32668,-40.78543,3.009403,-19.85796,67.45098,1.14,1251,32,19,0,32.94118,33.33333,0.8858725,17.64206,0.17,6.522974,231.5318,345.3,3.606185,5.505403,330,73,4221,0.97,1.509384,1.242188,1.505968,1.257813,0,0,0,0,0,0,0,0,0,0,0,0,12.94,0,0,0,0,0,0,0,0,0,74,35,0,0,0,0,0,0,0,0,0,0,0,0,0,0,0,0,0,0,0,0,0,0,0,0,0,0,0,0,0,0,0,0,0,0,0,0,0,0,0,0,0,0,0,0,0,0,0,0,0,0,0,0,0,0,0,13,-0.07662296,0,21.88607,1.073711,0.02442026,8.609456,1.835778,1,23.04046
111.056,37.28227,2.163713,15.38782,3.57254,-0.1941376,-0.2464905,81,84,7.008283E-16,5.219193,50.33107,0.2485982,96.98018,1.616336,-0.4122269,0.3864767,0.1319409,-6.050481,-39.98174,-38.87914,-0.7098866,-20.21843,67.45098,1.14,1251,32,19,0,32.94118,33.33333,0.8858725,17.64206,0.17,6.522974,231.5318,345.3,3.606185,5.505403,330,73,4221,0.97,1.509384,1.242188,1.505968,1.257813,0,0,0,0,0,0,0,0,0,0,0,0,12.94,0,0,0,0,0,0,0,0,0,74,35,0,0,0,0,0,0,0,0,0,0,0,0,0,0,0,0,0,0,0,0,0,0,0,0,0,0,0,0,0,0,0,0,0,0,0,0,0,0,0,0,0,0,0,0,0,0,0,0,0,0,0,0,0,0,0,13,-0.07662296,0,21.88607,1.073711,0.02442026,8.609456,1.835778,1,23.04046
112.056,37.28227,2.730363,15.39144,-9.57164,3.884567,-4.375748,81,84,7.008283E-16,6.444374,50.33107,0.2522199,122.3781,2.039635,0.3739564,0.5109346,-0.6307321,-4.460173,-39.60838,-39.49536,0.7562313,-20.09602,65.09804,1.15,1278.5,33,19,0,32.54902,32.94118,0.893671,18.18803,0.18,8.231263,228.6414,345.3,4.550602,5.50514,330,73,4221,0.97,1.538664,1.292969,1.537688,1.304688,0,0,0,0,0,0,0,0,0,0,0,0,12.94,0,0,0,0,0,0,0,0,0,74,35,0,0,0,0,0,0,0,0,0,0,0,0,0,0,0,0,0,0,0,0,0,0,0,0,0,0,0,0,0,0,0,0,0,0,0,0,0,0,0,0,0,0,0,0,0,0,0,0,0,0,0,0,0,0,0,13,-0.06094189,0,22.31063,1.103124,0.02477602,8.501979,1.871529,1,23.04046
113.058,37.28227,2.730363,15.39144,-4.600769,0.8264465,-1.606171,81,84,7.008283E-16,6.444374,50.33107,0.2522199,122.3781,2.039635,0.02528799,-0.1111501,-0.4530155,-5.733927,-38.99177,-38.29929,-1.128235,-20.02742,65.09804,1.15,1278.5,33,19,0,32.54902,32.94118,0.893671,18.18803,0.18,8.231263,228.6414,345.4,4.550602,5.50514,330,73,4221,0.97,1.538664,1.292969,1.537688,1.304688,0,0,0,0,0,0,0,0,0,0,0,0,12.94,0,0,0,0,0,0,0,0,0,74,35,0,0,0,0,0,0,0,0,0,0,0,0,0,0,0,0,0,0,0,0,0,0,0,0,0,0,0,0,0,0,0,0,0,0,0,0,0,0,0,0,0,0,0,0,0,0,0,0,0,0,0,0,0,0,0,13,-0.06094189,0,22.31063,1.103124,0.02477602,8.501979,1.871529,1,23.04046
114.056,37.90364,2.402664,15.39526,-3.380646,3.875458,-8.513779,81,84,0.06522442,5.682028,50.33107,0.2560412,105.9248,1.794837,0.03957661,-0.6722918,-0.1857134,-6.427797,-39.36164,-38.2282,-0.219286,-20.28131,57.2549,1.12,1276,33,19,0,29.41176,30.19608,0.7999227,17.62118,0.15,7.243343,224.7542,345.4,3.93879,5.504597,330,73,4221,0.97,1.61772,1.417969,1.610888,1.433594,0,0,0,0,0,0,0,0,0,0,0,0,12.94,0,0,0,0,0,0,0,0,0,74,35,0,0,0,0,0,0,0,0,0,0,0,0,0,0,0,0,0,0,0,0,0,0,0,0,0,0,0,0,0,0,0,0,0,0,0,0,0,0,0,0,0,0,0,0,0,0,0,0,0,0,0,0,0,0,0,13,-0.03277249,0,23.45694,1.139205,0.0251514,8.357432,1.900959,1,23.04046
115.056,37.90364,1.977446,15.39786,5.003021,-3.873489,4.005539,81,84,0.06522442,4.696681,50.33107,0.2586455,87.17851,1.477192,-0.5292404,0.370676,-0.2505396,-8.927494,-39.6492,-37.40948,-4.114946,-19.11342,56.86274,1.07,1270.5,33,19,0,29.41176,29.41176,0.7500065,16.76196,0.1,5.961434,221.2062,345.3,3.241713,5.503938,330,73,4221,0.97,1.662616,1.464844,1.663104,1.496094,0,0,0,0,0,0,0,0,0,0,0,0,12.94,0,0,0,0,0,0,0,0,0,74,35,0,0,0,0,0,0,0,0,0,0,0,0,0,0,0,0,0,0,0,0,0,0,0,0,0,0,0,0,0,0,0,0,0,0,0,0,0,0,0,0,0,0,0,0,0,0,0,0,0,0,0,0,0,0,0,13,-0.01682289,0,24.10793,1.169251,0.02540722,8.225499,1.931404,1,23.04046
116.056,37.90364,1.977446,15.39786,-11.36913,-2.421753,15.93791,81,84,0.06522442,4.696681,50.33107,0.2586455,87.17851,1.477192,-0.1929005,0.1081906,1.096259,-7.619018,-42.42566,-40.09889,-1.653353,-17.15172,56.86274,1.07,1270.5,33,19,0,29.41176,29.41176,0.7500065,16.76196,0.1,5.961434,221.2062,345.3,3.241713,5.503938,330,73,4221,0.97,1.662616,1.464844,1.663104,1.496094,0,0,0,0,0,0,0,0,0,0,0,0,12.94,0,0,0,0,0,0,0,0,0,74,35,0,0,0,0,0,0,0,0,0,0,0,0,0,0,0,0,0,0,0,0,0,0,0,0,0,0,0,0,0,0,0,0,0,0,0,0,0,0,0,0,0,0,0,0,0,0,0,0,0,0,0,0,0,0,0,13,-0.01682289,0,24.10793,1.169251,0.02540722,8.225499,1.931404,1,23.04046
117.056,37.90364,1.973888,15.40057,4.5914,-6.114517,4.454849,81,84,7.077672E-16,4.660717,50.33107,0.2613513,87.02164,1.474533,0.01551234,0.1317411,1.041538,-6.552532,-42.22655,-40.25819,-2.504314,-16.50629,58.43137,1.08,1278,33,19,0,29.41176,29.41176,0.7570834,17.01849,0.11,5.950707,217.7296,345.3,3.23588,5.50326,330,73,4221,0.97,1.6836,1.496094,1.68848,1.535156,0,0,0,0,0,0,0,0,0,0,0,0,12.94,0,0,0,0,0,0,0,0,0,74,35,0,0,0,0,0,0,0,0,0,0,0,0,0,0,0,0,0,0,0,0,0,0,0,0,0,0,0,0,0,0,0,0,0,0,0,0,0,0,0,0,0,0,0,0,0,0,0,0,0,0,0,0,0,0,0,13,0.009637223,0,24.4122,1.200348,0.02567302,8.096226,1.960469,1,23.04046
118.056,37.90364,1.973888,15.40057,9.895386,-2.271988,-2.725098,81,84,7.077672E-16,4.660717,50.33107,0.2613513,87.02164,1.474533,1.061345,-0.1559815,-0.6362975,-2.726585,-41.74906,-40.53002,0.1470642,-16.85196,58.43137,1.08,1278,33,19,0,29.41176,29.41176,0.7570834,17.01849,0.11,5.950707,217.7296,345.3,3.23588,5.50326,330,73,4221,0.97,1.6836,1.496094,1.68848,1.535156,0,0,0,0,0,0,0,0,0,0,0,0,12.94,0,0,0,0,0,0,0,0,0,74,35,0,0,0,0,0,0,0,0,0,0,0,0,0,0,0,0,0,0,0,0,0,0,0,0,0,0,0,0,0,0,0,0,0,0,0,0,0,0,0,0,0,0,0,0,0,0,0,0,0,0,0,0,0,0,0,13,0.009637223,0,24.4122,1.200348,0.02567302,8.096226,1.960469,1,23.04046
119.056,37.90364,1.973888,15.40057,-3.113892,7.191528,6.470596,81,84,7.077672E-16,4.660717,50.33107,0.2613513,87.02164,1.474533,-0.05520437,-0.8255531,0.1986641,-4.398328,-43.66865,-41.82095,1.112349,-16.565,58.43137,1.08,1278,33,19,0,29.41176,29.41176,0.7570834,17.01849,0.11,5.950707,217.7296,345.3,3.23588,5.50326,330,73,4221,0.97,1.6836,1.496094,1.68848,1.535156,0,0,0,0,0,0,0,0,0,0,0,0,12.94,0,0,0,0,0,0,0,0,0,74,35,0,0,0,0,0,0,0,0,0,0,0,0,0,0,0,0,0,0,0,0,0,0,0,0,0,0,0,0,0,0,0,0,0,0,0,0,0,0,0,0,0,0,0,0,0,0,0,0,0,0,0,0,0,0,0,13,0.009637223,0,24.4122,1.200348,0.02567302,8.096226,1.960469,1,23.04046
120.058,37.90364,2.108721,15.4033,-3.194107,-8.796341,-9.215698,86,87,7.077672E-16,4.977135,50.33107,0.2640819,92.96596,1.575256,-0.729273,0.04169789,-0.4920253,-6.935946,-42.2123,-39.58235,-3.927794,-16.98288,57.2549,1.09,1278.5,32,19,0,31.76471,31.37255,0.7824668,17.18279,0.12,6.357191,214.7554,345.4,3.456918,5.502684,350,73,4222,0.97,1.5738,1.347656,1.5738,1.367188,0,0,0,0,0,0,0,0,0,0,0,0,12.96,0,0,0,0,0,0,0,0,0,75,35,0,0,0,0,0,0,0,0,0,0,0,0,0,0,0,0,0,0,0,0,0,0,0,0,0,0,0,0,0,0,0,0,0,0,0,0,0,0,0,0,0,0,0,0,0,0,0,0,0,0,0,0,0,0,0,13,0.02539644,0,22.8201,1.229687,0.02594125,7.985631,2.013365,1,23.04046
121.056,37.90364,2.108721,15.4033,4.234512,-6.486526,-13.19585,86,87,7.077672E-16,4.977135,50.33107,0.2640819,92.96596,1.575256,-1.116379,0.1662648,-0.4225647,-8.337595,-42.87786,-39.34566,-5.205236,-16.35187,57.2549,1.09,1278.5,32,19,0,31.76471,31.37255,0.7824668,17.18279,0.12,6.357191,214.7554,345.4,3.456918,5.502684,350,73,4222,0.97,1.5738,1.347656,1.5738,1.367188,0,0,0,0,0,0,0,0,0,0,0,0,12.96,0,0,0,0,0,0,0,0,0,75,35,0,0,0,0,0,0,0,0,0,0,0,0,0,0,0,0,0,0,0,0,0,0,0,0,0,0,0,0,0,0,0,0,0,0,0,0,0,0,0,0,0,0,0,0,0,0,0,0,0,0,0,0,0,0,0,13,0.02539644,0,22.8201,1.229687,0.02594125,7.985631,2.013365,1,23.04046
122.058,37.90364,2.150054,15.40841,-5.296692,-0.1908417,-2.494568,86,87,7.077672E-16,5.029452,50.33107,0.2691928,94.78816,1.606133,0.232358,-0.6549743,0.965976,-4.330441,-44.2664,-42.75795,0.1562023,-14.73973,56.86274,1.11,1290,32,19,0,29.01961,29.01961,0.8112201,17.71332,0.14,6.481796,209.7161,345.4,3.524676,5.50166,350,73,4222,0.97,1.642608,1.441406,1.63724,1.46875,0,0,0,0,0,0,0,0,0,0,0,0,12.96,0,0,0,0,0,0,0,0,0,75,35,0,0,0,0,0,0,0,0,0,0,0,0,0,0,0,0,0,0,0,0,0,0,0,0,0,0,0,0,0,0,0,0,0,0,0,0,0,0,0,0,0,0,0,0,0,0,0,0,0,0,0,0,0,0,0,13,0.01304489,0,23.81782,1.283605,0.0264433,7.798246,2.043558,1,23.04046
123.057,37.90364,2.150054,15.40841,-1.371216,-13.08897,-1.630783,86,87,7.077672E-16,5.029452,50.33107,0.2691928,94.78816,1.606133,-1.558074,-0.5824265,0.3779005,-7.12394,-43.84305,-40.93243,-4.851269,-15.13942,56.86274,1.11,1290,32,19,0,29.01961,29.01961,0.8112201,17.71332,0.14,6.481796,209.7161,345.4,3.524676,5.50166,350,73,4222,0.97,1.642608,1.441406,1.63724,1.46875,0,0,0,0,0,0,0,0,0,0,0,0,12.96,0,0,0,0,0,0,0,0,0,75,35,0,0,0,0,0,0,0,0,0,0,0,0,0,0,0,0,0,0,0,0,0,0,0,0,0,0,0,0,0,0,0,0,0,0,0,0,0,0,0,0,0,0,0,0,0,0,0,0,0,0,0,0,0,0,0,13,0.01304489,0,23.81782,1.283605,0.0264433,7.798246,2.043558,1,23.04046
124.057,38.52501,2.037132,15.41115,-2.002243,3.118881,-2.450317,86,87,0.07699046,4.781985,50.33107,0.2719362,88.36131,1.521778,0.5552484,0.2492617,-0.9299954,-6.848954,-44.14973,-40.82194,-6.568359,-14.13033,55.29412,1.07,1285.5,32,19,0,29.01961,28.62745,0.7670161,17.01544,0.1,6.14137,206.8468,345.4,3.285695,5.500998,350,73,4222,0.97,1.691896,1.511719,1.699216,1.546875,0,0,0,0,0,0,0,0,0,0,0,0,12.96,0,0,0,0,0,0,0,0,0,75,35,0,0,0,0,0,0,0,0,0,0,0,0,0,0,0,0,0,0,0,0,0,0,0,0,0,0,0,0,0,0,0,0,0,0,0,0,0,0,0,0,0,0,0,0,0,0,0,0,0,0,0,0,0,0,0,13,0.02844298,0,24.53249,1.314674,0.02671279,7.691552,2.073735,1,23.04046
125.057,38.52501,2.037132,15.41115,-10.75671,-4.865616,-0.9050446,86,87,0.07699046,4.781985,50.33107,0.2719362,88.36131,1.521778,-0.8344732,0.4514435,-0.06915983,-8.403432,-43.60847,-39.48037,-8.5406,-14.16492,55.29412,1.07,1285.5,32,19,0,29.01961,28.62745,0.7670161,17.01544,0.1,6.14137,206.8468,345.3,3.285695,5.500998,350,73,4222,0.97,1.691896,1.511719,1.699216,1.546875,0,0,0,0,0,0,0,0,0,0,0,0,12.96,0,0,0,0,0,0,0,0,0,75,35,0,0,0,0,0,0,0,0,0,0,0,0,0,0,0,0,0,0,0,0,0,0,0,0,0,0,0,0,0,0,0,0,0,0,0,0,0,0,0,0,0,0,0,0,0,0,0,0,0,0,0,0,0,0,0,13,0.02844298,0,24.53249,1.314674,0.02671279,7.691552,2.073735,1,23.04046
126.059,38.52501,2.037132,15.41115,-21.73253,15.00949,-17.64964,86,87,0.07699046,4.781985,50.33107,0.2719362,88.36131,1.521778,0.5964077,0.5508782,-0.2114789,-4.896144,-43.16062,-42.3377,-1.861616,-14.68922,55.29412,1.07,1285.5,32,19,0,29.01961,28.62745,0.7670161,17.01544,0.1,6.14137,206.8468,345.4,3.285695,5.500998,350,73,4222,0.97,1.691896,1.511719,1.699216,1.546875,0,0,0,0,0,0,0,0,0,0,0,0,12.96,0,0,0,0,0,0,0,0,0,75,35,0,0,0,0,0,0,0,0,0,0,0,0,0,0,0,0,0,0,0,0,0,0,0,0,0,0,0,0,0,0,0,0,0,0,0,0,0,0,0,0,0,0,0,0,0,0,0,0,0,0,0,0,0,0,0,13,0.02844298,0,24.53249,1.314674,0.02671279,7.691552,2.073735,1,23.04046
127.057,38.52501,2.037132,15.41115,-14.5367,-1.159683,0.05525208,86,87,0.07699046,4.781985,50.33107,0.2719362,88.36131,1.521778,0.8083742,0.0655846,0.4769806,-5.073397,-44.34253,-42.54755,-2.504488,-13.95557,55.29412,1.07,1285.5,32,19,0,29.01961,28.62745,0.7670161,17.01544,0.1,6.14137,206.8468,345.4,3.285695,5.500998,350,73,4222,0.97,1.691896,1.511719,1.699216,1.546875,0,0,0,0,0,0,0,0,0,0,0,0,12.96,0,0,0,0,0,0,0,0,0,75,35,0,0,0,0,0,0,0,0,0,0,0,0,0,0,0,0,0,0,0,0,0,0,0,0,0,0,0,0,0,0,0,0,0,0,0,0,0,0,0,0,0,0,0,0,0,0,0,0,0,0,0,0,0,0,0,13,0.02844298,0,24.53249,1.314674,0.02671279,7.691552,2.073735,1,23.04046
128.057,38.52501,2.037132,15.41115,-9.227493,-1.162598,8.555222,86,87,0.07699046,4.781985,50.33107,0.2719362,88.36131,1.521778,0.08327107,-0.9494187,1.294394,-8.316899,-45.92865,-40.7678,-9.615372,-11.57146,55.29412,1.07,1285.5,32,19,0,29.01961,28.62745,0.7670161,17.01544,0.1,6.14137,206.8468,345.2,3.285695,5.500998,350,73,4222,0.97,1.691896,1.511719,1.699216,1.546875,0,0,0,0,0,0,0,0,0,0,0,0,12.96,0,0,0,0,0,0,0,0,0,75,35,0,0,0,0,0,0,0,0,0,0,0,0,0,0,0,0,0,0,0,0,0,0,0,0,0,0,0,0,0,0,0,0,0,0,0,0,0,0,0,0,0,0,0,0,0,0,0,0,0,0,0,0,0,0,0,13,0.02844298,0,24.53249,1.314674,0.02671279,7.691552,2.073735,1,23.04046
129.057,38.52501,2.037132,15.41115,5.657944,-1.552383,3.421524,86,87,0.07699046,4.781985,50.33107,0.2719362,88.36131,1.521778,0.8682838,0.1839939,-3.244195,-6.597898,-40.51181,-40.78444,-10.08295,-12.24788,55.29412,1.07,1285.5,32,19,0,29.01961,28.62745,0.7670161,17.01544,0.1,6.14137,206.8468,345.3,3.285695,5.500998,350,73,4222,0.97,1.691896,1.511719,1.699216,1.546875,0,0,0,0,0,0,0,0,0,0,0,0,12.96,0,0,0,0,0,0,0,0,0,75,35,0,0,0,0,0,0,0,0,0,0,0,0,0,0,0,0,0,0,0,0,0,0,0,0,0,0,0,0,0,0,0,0,0,0,0,0,0,0,0,0,0,0,0,0,0,0,0,0,0,0,0,0,0,0,0,13,0.02844298,0,24.53249,1.314674,0.02671279,7.691552,2.073735,1,23.04046
130.058,38.52501,2.037132,15.41115,-6.626831,-1.988373,-6.194931,86,87,0.07699046,4.781985,50.33107,0.2719362,88.36131,1.521778,-0.5881196,-0.9398253,0.5301232,-7.757028,-44.21398,-41.00415,-10.48068,-11.79637,55.29412,1.07,1285.5,32,19,0,29.01961,28.62745,0.7670161,17.01544,0.1,6.14137,206.8468,345.3,3.285695,5.500998,350,73,4222,0.97,1.691896,1.511719,1.699216,1.546875,0,0,0,0,0,0,0,0,0,0,0,0,12.96,0,0,0,0,0,0,0,0,0,75,35,0,0,0,0,0,0,0,0,0,0,0,0,0,0,0,0,0,0,0,0,0,0,0,0,0,0,0,0,0,0,0,0,0,0,0,0,0,0,0,0,0,0,0,0,0,0,0,0,0,0,0,0,0,0,0,13,0.02844298,0,24.53249,1.314674,0.02671279,7.691552,2.073735,1,23.04046
131.060,38.52501,2.037132,15.41115,-10.11238,-8.321655,-2.176407,86,87,0.07699046,4.781985,50.33107,0.2719362,88.36131,1.521778,-0.447461,0.2826788,-0.2380528,-6.658216,-44.32226,-41.36583,-12.52768,-9.934875,55.29412,1.07,1285.5,32,19,0,29.01961,28.62745,0.7670161,17.01544,0.1,6.14137,206.8468,345.3,3.285695,5.500998,350,73,4222,0.97,1.691896,1.511719,1.699216,1.546875,0,0,0,0,0,0,0,0,0,0,0,0,12.96,0,0,0,0,0,0,0,0,0,75,35,0,0,0,0,0,0,0,0,0,0,0,0,0,0,0,0,0,0,0,0,0,0,0,0,0,0,0,0,0,0,0,0,0,0,0,0,0,0,0,0,0,0,0,0,0,0,0,0,0,0,0,0,0,0,0,13,0.02844298,0,24.53249,1.314674,0.02671279,7.691552,2.073735,1,23.04046
132.058,38.52501,2.037132,15.41115,-3.407883,9.720795,-15.42357,86,87,0.07699046,4.781985,50.33107,0.2719362,88.36131,1.521778,0.7269999,1.147028,1.344394,-7.601382,-44.65009,-40.44791,-13.40717,-9.669235,55.29412,1.07,1285.5,32,19,0,29.01961,28.62745,0.7670161,17.01544,0.1,6.14137,206.8468,345.3,3.285695,5.500998,350,73,4222,0.97,1.691896,1.511719,1.699216,1.546875,0,0,0,0,0,0,0,0,0,0,0,0,12.96,0,0,0,0,0,0,0,0,0,75,35,0,0,0,0,0,0,0,0,0,0,0,0,0,0,0,0,0,0,0,0,0,0,0,0,0,0,0,0,0,0,0,0,0,0,0,0,0,0,0,0,0,0,0,0,0,0,0,0,0,0,0,0,0,0,0,13,0.02844298,0,24.53249,1.314674,0.02671279,7.691552,2.073735,1,23.04046
133.058,38.52501,2.037132,15.41115,20.35951,-2.451355,7.671967,86,87,0.07699046,4.781985,50.33107,0.2719362,88.36131,1.521778,-0.9203042,-1.002042,-0.8672312,-5.59137,-39.78141,-40.45592,-13.58354,-8.98703,55.29412,1.07,1285.5,32,19,0,29.01961,28.62745,0.7670161,17.01544,0.1,6.14137,206.8468,345.4,3.285695,5.500998,350,73,4222,0.97,1.691896,1.511719,1.699216,1.546875,0,0,0,0,0,0,0,0,0,0,0,0,12.96,0,0,0,0,0,0,0,0,0,75,35,0,0,0,0,0,0,0,0,0,0,0,0,0,0,0,0,0,0,0,0,0,0,0,0,0,0,0,0,0,0,0,0,0,0,0,0,0,0,0,0,0,0,0,0,0,0,0,0,0,0,0,0,0,0,0,13,0.02844298,0,24.53249,1.314674,0.02671279,7.691552,2.073735,1,23.04046
134.058,38.52501,2.037132,15.41115,-18.4922,4.64624,-25.53448,86,87,0.07699046,4.781985,50.33107,0.2719362,88.36131,1.521778,0.7792006,0.3260479,0.4098371,-3.016926,-44.91389,-43.3209,-7.750183,-8.74913,55.29412,1.07,1285.5,32,19,0,29.01961,28.62745,0.7670161,17.01544,0.1,6.14137,206.8468,345.4,3.285695,5.500998,350,73,4222,0.97,1.691896,1.511719,1.699216,1.546875,0,0,0,0,0,0,0,0,0,0,0,0,12.96,0,0,0,0,0,0,0,0,0,75,35,0,0,0,0,0,0,0,0,0,0,0,0,0,0,0,0,0,0,0,0,0,0,0,0,0,0,0,0,0,0,0,0,0,0,0,0,0,0,0,0,0,0,0,0,0,0,0,0,0,0,0,0,0,0,0,13,0.02844298,0,24.53249,1.314674,0.02671279,7.691552,2.073735,1,23.04046
135.058,23.6121,0,0,19.18044,-8.995728,-4.568329,87,88,-0.07176894,4.623724,23.6121,0,147.6898,0,-0.1481392,-0.197697,-0.2413903,2.214362,-51.36602,-48.8008,-3.940102,-3.928375,36.07843,1.08,1329.5,32,19,0,43.52941,41.56863,0,18.4894,0.08,0,0,346.1,5.491811,5.500998,377,73,4223,0.97,1.409344,1.054688,1.373232,1.007813,0,0,0,0,0,0,0,0,0,0,0,0,12.98,0,0,0,0,0,0,0,0,0,71,36,0,0,0,0,0,0,0,0,0,0,0,0,0,0,0,0,0,0,0,0,0,0,0,0,0,0,0,0,0,0,0,0,0,0,0,0,0,0,0,0,0,0,0,0,0,0,0,0,0,0,0,0,0,0,0,13,-0.001308902,0,20.43549,0,0,0,0,0,0
136.058,23.6121,0,0,8.178986,-4.339935,1.470657,87,88,-0.07176894,4.623724,23.6121,0,147.6898,0,-0.2938524,0.3078596,-1.05329,-2.048001,-43.72898,-42.86148,-12.58986,-4.445053,36.07843,1.08,1329.5,32,19,0,43.52941,41.56863,0,18.4894,0.08,0,0,346.2,5.491811,5.500998,377,73,4223,0.97,1.409344,1.054688,1.373232,1.007813,0,0,0,0,0,0,0,0,0,0,0,0,12.98,0,0,0,0,0,0,0,0,0,71,36,0,0,0,0,0,0,0,0,0,0,0,0,0,0,0,0,0,0,0,0,0,0,0,0,0,0,0,0,0,0,0,0,0,0,0,0,0,0,0,0,0,0,0,0,0,0,0,0,0,0,0,0,0,0,0,13,-0.001308902,0,20.43549,0,0,0,0,0,0
137.058,26.09759,3.087699,15.41905,3.316345,-0.4693146,-2.091492,87,88,0.01362376,5.48568,26.09759,0.00789705,197.7062,2.306573,-0.3964377,0.5344551,-0.6288068,-5.32532,-43.97655,-42.3661,-13.73615,-5.289215,99.21568,1.52,1698.5,32,19,0,51.37255,51.37255,1.777877,31.93716,0.55,9.308529,197.848,346.3,7.35166,5.501709,377,73,4223,0.97,1.319552,0.9296875,1.323944,0.9140625,0,0,0,0,0,0,0,0,0,0,0,0,12.98,0,0,0,0,0,0,0,0,0,71,36,0,0,0,0,0,0,0,0,0,0,0,0,0,0,0,0,0,0,0,0,0,0,0,0,0,0,0,0,0,0,0,0,0,0,0,0,0,0,0,0,0,0,0,0,0,0,0,0,0,0,0,0,0,0,0,13,0.03116773,0,19.1335,0.03991474,0.0007757416,7.35693,0.088034,0,0
138.058,26.09759,3.087699,15.41905,1.900681,6.129227,-4.415619,87,88,0.01362376,5.48568,26.09759,0.00789705,197.7062,2.306573,-0.7215053,0.3080918,0.1947021,-4.858017,-43.22338,-40.974,-14.53722,-4.054153,99.21568,1.52,1698.5,32,19,0,51.37255,51.37255,1.777877,31.93716,0.55,9.308529,197.848,346.5,7.35166,5.501709,377,73,4223,0.97,1.319552,0.9296875,1.323944,0.9140625,0,0,0,0,0,0,0,0,0,0,0,0,12.98,0,0,0,0,0,0,0,0,0,71,36,0,0,0,0,0,0,0,0,0,0,0,0,0,0,0,0,0,0,0,0,0,0,0,0,0,0,0,0,0,0,0,0,0,0,0,0,0,0,0,0,0,0,0,0,0,0,0,0,0,0,0,0,0,0,0,13,0.03116773,0,19.1335,0.03991474,0.0007757416,7.35693,0.088034,0,0
139.058,29.82582,8.807705,15.43089,25.42253,-1.846939,2.79361,87,88,0.6268375,13.1185,29.82582,0.01973567,493.4648,6.57953,1.072772,0.3970021,-0.8336661,0.04909579,-40.16945,-42.73017,-14.19638,-1.035461,74.11765,1.67,2026,32,19,0,46.27451,46.27451,1.443509,41.85459,0.7,26.55271,309.1539,346.6,18.34937,5.50467,377,73,4223,0.97,1.5494,1.359375,1.547936,1.332031,0,0,0,0,0,0,0,0,0,0,0,0,12.98,0,0,0,0,0,0,0,0,0,71,36,0,0,0,0,0,0,0,0,0,0,0,0,0,0,0,0,0,0,0,0,0,0,0,0,0,0,0,0,0,0,0,0,0,0,0,0,0,0,0,0,0,0,0,0,0,0,0,0,0,0,0,0,0,0,0,13,0.1240586,0,22.4663,0.06383768,0.001938671,11.49582,0.1182102,0,0
140.058,33.55404,6.722847,15.44054,-21.93344,5.870499,-3.991699,87,88,0.9246311,12.92155,33.55404,0.02938227,334.8066,5.022099,0.3303986,0.3406581,0.0821083,-1.048377,-41.84096,-42.40416,-13.80603,-1.827896,49.80392,1.44,1570,32,19,0,43.52941,43.52941,1.236502,27.96722,0.47,20.26746,322.878,346.7,12.44971,5.506676,377,73,4223,0.97,1.211216,0.6367188,1.223904,0.671875,0,0,0,0,0,0,0,0,0,0,0,0,12.98,0,0,0,0,0,0,0,0,0,71,36,0,0,0,0,0,0,0,0,0,0,0,0,0,0,0,0,0,0,0,0,0,0,0,0,0,0,0,0,0,0,0,0,0,0,0,0,0,0,0,0,0,0,0,0,0,0,0,0,0,0,0,0,0,0,0,13,0.2160939,0,17.56263,0.09100115,0.002886274,12.00614,0.1490338,0,0
141.058,33.55404,6.722847,15.44054,-9.367188,5.41507,10.97665,87,88,0.9246311,12.92155,33.55404,0.02938227,334.8066,5.022099,0.06358773,-0.2342424,0.07136253,-0.2480181,-43.5268,-44.2363,-13.60003,-1.497559,49.80392,1.44,1570,32,19,0,43.52941,43.52941,1.236502,27.96722,0.47,20.26746,322.878,346.9,12.44971,5.506676,377,73,4223,0.97,1.211216,0.6367188,1.223904,0.671875,0,0,0,0,0,0,0,0,0,0,0,0,12.98,0,0,0,0,0,0,0,0,0,71,36,0,0,0,0,0,0,0,0,0,0,0,0,0,0,0,0,0,0,0,0,0,0,0,0,0,0,0,0,0,0,0,0,0,0,0,0,0,0,0,0,0,0,0,0,0,0,0,0,0,0,0,0,0,0,0,13,0.2160939,0,17.56263,0.09100115,0.002886274,12.00614,0.1490338,0,0
142.058,33.55404,6.722847,15.44054,6.281326,1.27037,3.477982,87,88,0.9246311,12.92155,33.55404,0.02938227,334.8066,5.022099,0.142095,-0.09850384,1.023308,0.04086004,-45.68903,-45.1688,-13.54972,-2.082687,49.80392,1.44,1570,32,19,0,43.52941,43.52941,1.236502,27.96722,0.47,20.26746,322.878,347,12.44971,5.506676,377,73,4223,0.97,1.211216,0.6367188,1.223904,0.671875,0,0,0,0,0,0,0,0,0,0,0,0,12.98,0,0,0,0,0,0,0,0,0,71,36,0,0,0,0,0,0,0,0,0,0,0,0,0,0,0,0,0,0,0,0,0,0,0,0,0,0,0,0,0,0,0,0,0,0,0,0,0,0,0,0,0,0,0,0,0,0,0,0,0,0,0,0,0,0,0,13,0.2160939,0,17.56263,0.09100115,0.002886274,12.00614,0.1490338,0,0
143.058,34.79679,3.19386,15.44467,-8.099274,7.322708,5.590759,87,88,0.6100402,6.219928,34.79679,0.03351753,153.3778,2.385877,0.2149094,0.529188,0.3459667,1.67312,-45.19622,-46.2122,-12.64556,-1.60968,83.52941,1.35,1549.5,31,19,0,40.78431,41.17647,1.128121,25.87692,0.38,9.628574,279.6997,347.2,5.703318,5.506628,377,73,4223,0.97,1.321504,0.8984375,1.322968,0.90625,0,0,0,0,0,0,0,0,0,0,0,0,12.98,0,0,0,0,0,0,0,0,0,71,36,0,0,0,0,0,0,0,0,0,0,0,0,0,0,0,0,0,0,0,0,0,0,0,0,0,0,0,0,0,0,0,0,0,0,0,0,0,0,0,0,0,0,0,0,0,0,0,0,0,0,0,0,0,0,0,13,0.2330218,0,19.16181,0.119834,0.003292488,10.40057,0.1855022,0,0
144.058,36.6609,4.64274,15.45229,-18.53545,24.15367,-5.077774,87,88,0.3396023,10.5855,36.6609,0.04113912,211.6201,3.468219,-0.1518893,-0.196264,0.3008658,0.2545306,-45.15756,-46.23853,-10.76849,-3.430603,42.7451,1.26,1323.5,31,19,0,41.17647,41.96078,0.9874625,20.69699,0.29,13.99653,264.0102,347.3,7.869045,5.507445,377,73,4223,0.97,1.236592,0.6992188,1.241472,0.7265625,0,0,0,0,0,0,0,0,0,0,0,0,12.98,0,0,0,0,0,0,0,0,0,71,36,0,0,0,0,0,0,0,0,0,0,0,0,0,0,0,0,0,0,0,0,0,0,0,0,0,0,0,0,0,0,0,0,0,0,0,0,0,0,0,0,0,0,0,0,0,0,0,0,0,0,0,0,0,0,0,13,0.2709695,0,17.93058,0.155824,0.004041171,9.817156,0.2149701,0,0
145.058,36.6609,4.64274,15.45229,-3.659607,-0.8565674,-13.13387,87,88,0.3396023,10.5855,36.6609,0.04113912,211.6201,3.468219,0.3119518,0.401118,-1.032794,1.828502,-42.15751,-46.04946,-8.77058,-4.386154,42.7451,1.26,1323.5,31,19,0,41.17647,41.96078,0.9874625,20.69699,0.29,13.99653,264.0102,347.4,7.869045,5.507445,377,73,4223,0.97,1.236592,0.6992188,1.241472,0.7265625,0,0,0,0,0,0,0,0,0,0,0,0,12.98,0,0,0,0,0,0,0,0,0,71,36,0,0,0,0,0,0,0,0,0,0,0,0,0,0,0,0,0,0,0,0,0,0,0,0,0,0,0,0,0,0,0,0,0,0,0,0,0,0,0,0,0,0,0,0,0,0,0,0,0,0,0,0,0,0,0,13,0.2709695,0,17.93058,0.155824,0.004041171,9.817156,0.2149701,0,0
146.058,37.28227,2.313307,15.45535,-6.854065,2.898178,4.855225,87,88,0.2685543,5.373845,37.28227,0.04419759,103.6852,1.728086,0.7290715,0.01310038,0.6066586,2.128567,-42.65468,-47.61901,-6.458256,-3.771027,85.88235,1.32,1299,31,19,0,40.78431,40.78431,1.125642,21.28119,0.35,6.973957,238.6555,347.6,3.855508,5.506985,377,73,4223,0.97,1.255136,0.7421875,1.254648,0.7578125,0,0,0,0,0,0,0,0,0,0,0,0,12.98,0,0,0,0,0,0,0,0,0,71,36,0,0,0,0,0,0,0,0,0,0,0,0,0,0,0,0,0,0,0,0,0,0,0,0,0,0,0,0,0,0,0,0,0,0,0,0,0,0,0,0,0,0,0,0,0,0,0,0,0,0,0,0,0,0,0,13,0.2867326,0,18.19947,0.1851941,0.00434161,8.874351,0.2451767,0,0
147.058,37.28227,2.313307,15.45535,8.847351,4.871124,-0.46875,87,88,0.2685543,5.373845,37.28227,0.04419759,103.6852,1.728086,0.2412138,1.114555,-0.8935415,0.1237523,-41.10218,-45.95348,-9.882435,-4.774231,85.88235,1.32,1299,31,19,0,40.78431,40.78431,1.125642,21.28119,0.35,6.973957,238.6555,347.8,3.855508,5.506985,377,73,4223,0.97,1.255136,0.7421875,1.254648,0.7578125,0,0,0,0,0,0,0,0,0,0,0,0,12.98,0,0,0,0,0,0,0,0,0,71,36,0,0,0,0,0,0,0,0,0,0,0,0,0,0,0,0,0,0,0,0,0,0,0,0,0,0,0,0,0,0,0,0,0,0,0,0,0,0,0,0,0,0,0,0,0,0,0,0,0,0,0,0,0,0,0,13,0.2867326,0,18.19947,0.1851941,0.00434161,8.874351,0.2451767,0,0
148.058,38.52501,4.328596,15.46126,7.072937,3.629944,-7.276779,87,88,0.2307779,9.84693,38.52501,0.05011117,187.7543,3.233547,-0.7066126,-0.8379838,-0.1843011,0.3054284,-44.82192,-47.38367,-7.997204,-4.536865,82.35294,1.28,1326.5,31,19,0,38.82353,38.82353,1.068098,21.07318,0.31,13.04948,231.2732,347.8,6.981602,5.507431,377,73,4223,0.97,1.321992,0.8984375,1.317112,0.8945313,0,0,0,0,0,0,0,0,0,0,0,0,12.98,0,0,0,0,0,0,0,0,0,71,36,0,0,0,0,0,0,0,0,0,0,0,0,0,0,0,0,0,0,0,0,0,0,0,0,0,0,0,0,0,0,0,0,0,0,0,0,0,0,0,0,0,0,0,0,0,0,0,0,0,0,0,0,0,0,0,13,0.3171251,0,19.16888,0.2166752,0.004922512,8.599841,0.2749804,0,0
149.058,38.52501,4.328596,15.46126,-5.606339,1.205597,0.9758759,87,88,0.2307779,9.84693,38.52501,0.05011117,187.7543,3.233547,-0.3597742,0.8618797,1.051125,1.590873,-44.95326,-48.37069,-4.908583,-5.480026,82.35294,1.28,1326.5,31,19,0,38.82353,38.82353,1.068098,21.07318,0.31,13.04948,231.2732,347.9,6.981602,5.507431,377,73,4223,0.97,1.321992,0.8984375,1.317112,0.8945313,0,0,0,0,0,0,0,0,0,0,0,0,12.98,0,0,0,0,0,0,0,0,0,71,36,0,0,0,0,0,0,0,0,0,0,0,0,0,0,0,0,0,0,0,0,0,0,0,0,0,0,0,0,0,0,0,0,0,0,0,0,0,0,0,0,0,0,0,0,0,0,0,0,0,0,0,0,0,0,0,13,0.3171251,0,19.16888,0.2166752,0.004922512,8.599841,0.2749804,0,0
150.058,39.14639,4.035009,15.4666,-2.869415,1.511627,-3.9319,87,88,0.2303694,9.110383,39.14639,0.05544721,172.2418,3.014232,-0.005192504,-1.192994,-0.7571541,0.9053211,-42.59707,-48.1172,-3.60449,-6.569046,70.58823,1.23,1336.5,30,19,0,34.5098,34.5098,1.0168,20.40266,0.26,12.1644,223.8714,348,6.404772,5.507696,377,73,4223,0.97,1.663104,1.4375,1.642608,1.46875,0,0,0,0,0,0,0,0,0,0,0,0,12.98,0,0,0,0,0,0,0,0,0,71,36,0,0,0,0,0,0,0,4,0,0,0,0,0,0,0,0,0,0,0,0,0,0,0,0,0,0,0,0,0,0,0,0,0,0,0,0,0,0,0,0,0,0,0,0,0,0,0,0,0,0,0,0,0,0,0,13,0.3328065,0,24.11501,0.2476744,0.00544668,8.324604,0.3103475,0,0
151.058,39.14639,4.035009,15.4666,6.596512,28.15698,0.2241669,87,88,0.2303694,9.110383,39.14639,0.05544721,172.2418,3.014232,0.7800407,0.255803,0.2927968,0.1687464,-41.9293,-48.12959,-2.816961,-8.178787,70.58823,1.23,1336.5,30,19,0,34.5098,34.5098,1.0168,20.40266,0.26,12.1644,223.8714,348,6.404772,5.507696,377,73,4223,0.97,1.663104,1.4375,1.642608,1.46875,0,0,0,0,0,0,0,0,0,0,0,0,12.98,0,0,0,0,0,0,0,0,0,71,36,0,0,0,0,0,0,0,4,0,0,0,0,0,0,0,0,0,0,0,0,0,0,0,0,0,0,0,0,0,0,0,0,0,0,0,0,0,0,0,0,0,0,0,0,0,0,0,0,0,0,0,0,0,0,0,13,0.3328065,0,24.11501,0.2476744,0.00544668,8.324604,0.3103475,0,0
152.058,39.76776,3.758158,15.47248,-11.2533,-8.470825,0.8382416,87,88,0.1443893,8.520361,39.76776,0.06132658,157.9173,2.807418,-0.627884,0.3855818,0.6841294,-2.401742,-43.94566,-47.4497,-7.514668,-7.731201,34.90196,0.88,1331,30,19,0,31.37255,30.58824,1.093001,14.58491,-0.09,11.32977,215.1088,348,5.872118,5.507815,377,73,4223,0.97,0.926712,-0.5117188,1.006744,0.02734375,0,0,0,0,0,0,0,0,0,0,0,0,12.98,0,0,0,0,0,0,0,0,0,71,36,0,0,0,0,0,0,0,4,0,0,0,0,0,0,0,0,0,0,0,0,0,0,0,0,0,0,0,0,0,0,0,0,0,0,0,0,0,0,0,0,0,0,0,0,0,0,0,0,0,0,0,0,0,0,0,13,0.3306049,0,13.43732,0.2850956,0.006024222,7.998772,0.3398381,0,0
153.058,39.76776,3.758158,15.47248,-3.424423,2.510208,-4.346176,87,88,0.1443893,8.520361,39.76776,0.06132658,157.9173,2.807418,-0.08363855,-0.6055776,0.1032657,-0.5253235,-45.08859,-47.83337,-4.857096,-6.724182,34.90196,0.88,1331,30,19,0,31.37255,30.58824,1.093001,14.58491,-0.09,11.32977,215.1088,348.1,5.872118,5.507815,377,73,4223,0.97,0.926712,-0.5117188,1.006744,0.02734375,0,0,0,0,0,0,0,0,0,0,0,0,12.98,0,0,0,0,0,0,0,0,0,71,36,0,0,0,0,0,0,0,4,0,0,0,0,0,0,0,0,0,0,0,0,0,0,0,0,0,0,0,0,0,0,0,0,0,0,0,0,0,0,0,0,0,0,0,0,0,0,0,0,0,0,0,0,0,0,0,13,0.3306049,0,13.43732,0.2850956,0.006024222,7.998772,0.3398381,0,0
154.058,39.76776,1.318822,15.47423,-12.5345,-0.5394287,-7.088867,87,88,0.06598232,3.002392,39.76776,0.06307214,55.41671,0.9851859,0.3426653,-0.1102706,0.9998529,-1.456667,-45.71426,-47.70074,-3.047934,-7.736938,40.78431,0.69,1325.5,30,19,0,27.84314,27.84314,0.7789421,11.38864,-0.28,3.975869,199.2421,348.1,2.060657,5.506778,397,73,4223,0.97,0.953064,-0.2929688,0.995032,-0.02734375,0,0,0,0,0,0,0,0,0,0,0,0,13.02,0,0,0,0,0,0,0,0,0,78,35,0,0,0,0,0,0,0,4,0,0,0,0,0,0,0,0,0,0,0,0,0,0,0,0,0,0,0,0,0,0,0,0,0,0,0,0,0,0,0,0,0,0,0,0,0,0,0,0,0,0,0,0,0,0,0,13,0.3603567,0,13.81943,0.3165603,0.006195692,7.408771,0.3780952,0,0
155.058,39.76776,1.318822,15.47423,-17.64485,-12.68936,0.5480194,87,88,0.06598232,3.002392,39.76776,0.06307214,55.41671,0.9851859,0.6961303,0.05566253,-0.3196245,-4.469525,-43.0778,-45.96717,-3.657045,-10.92932,40.78431,0.69,1325.5,30,19,0,27.84314,27.84314,0.7789421,11.38864,-0.28,3.975869,199.2421,348.1,2.060657,5.506778,397,73,4223,0.97,0.953064,-0.2929688,0.995032,-0.02734375,0,0,0,0,0,0,0,0,0,0,0,0,13.02,0,0,0,0,0,0,0,0,0,78,35,0,0,0,0,0,0,0,4,0,0,0,0,0,0,0,0,0,0,0,0,0,0,0,0,0,0,0,0,0,0,0,0,0,0,0,0,0,0,0,0,0,0,0,0,0,0,0,0,0,0,0,0,0,0,0,13,0.3603567,0,13.81943,0.3165603,0.006195692,7.408771,0.3780952,0,0
156.058,39.14639,1.852656,15.47743,6.986725,-7.868286,3.197235,87,88,-0.0600329,4.214525,39.76776,0.066273,79.08406,1.383971,-0.3065661,-0.315426,-0.08466,-6.313329,-42.06088,-43.08873,-9.777225,-10.58023,36.86274,0.8,1326.5,30,19,0,30.58824,30.58824,0.9403055,13.21418,-0.17,5.585228,185.614,348,2.940722,5.505784,397,73,4223,0.97,0.945744,-0.3828125,0.99308,-0.0546875,0,0,0,0,0,0,0,0,0,0,0,0,13.02,0,0,0,0,0,0,0,0,0,78,35,0,0,0,0,0,0,0,4,0,0,0,0,0,0,0,0,0,0,0,0,0,0,0,0,0,0,0,0,0,0,0,0,0,0,0,0,0,0,0,0,0,0,0,0,0,0,0,0,0,0,0,0,0,0,0,13,0.3158735,0,13.71329,0.3570474,0.006510117,6.902013,0.4072533,0,0
157.058,39.14639,1.852656,15.47743,-5.52977,2.775436,-4.473511,87,88,-0.0600329,4.214525,39.76776,0.066273,79.08406,1.383971,0.438548,0.04518964,-0.6464263,-5.201243,-43.02589,-43.68643,-9.358421,-9.549774,36.86274,0.8,1326.5,30,19,0,30.58824,30.58824,0.9403055,13.21418,-0.17,5.585228,185.614,348.1,2.940722,5.505784,397,73,4223,0.97,0.945744,-0.3828125,0.99308,-0.0546875,0,0,0,0,0,0,0,0,0,0,0,0,13.02,0,0,0,0,0,0,0,0,0,78,35,0,0,0,0,0,0,0,4,0,0,0,0,0,0,0,0,0,0,0,0,0,0,0,0,0,0,0,0,0,0,0,0,0,0,0,0,0,0,0,0,0,0,0,0,0,0,0,0,0,0,0,0,0,0,0,13,0.3158735,0,13.71329,0.3570474,0.006510117,6.902013,0.4072533,0,0
158.058,39.14639,1.519149,15.4794,2.838043,-11.63017,7.13916,87,88,-0.0600329,3.45324,39.76776,0.0682444,64.84767,1.134834,0.2011171,-0.08270998,0.3173299,-0.5720828,-44.69888,-46.03975,-4.695986,-7.00592,39.60784,0.75,1327.5,30,19,0,30.19608,30.19608,0.8524176,12.39763,-0.22,4.579799,176.1352,348.1,2.411345,5.504884,397,73,4223,0.97,0.920856,-0.5703125,0.983808,-0.1171875,0,0,0,0,0,0,0,0,0,0,0,0,13.02,0,0,0,0,0,0,0,0,0,78,35,0,0,0,0,0,0,0,4,0,0,0,0,0,0,0,0,0,0,0,0,0,0,0,0,0,0,0,0,0,0,0,0,0,0,0,0,0,0,0,0,0,0,0,0,0,0,0,0,0,0,0,0,0,0,0,13,0.2229827,0,13.35241,0.3874547,0.006703772,6.549546,0.4422314,0,0
159.058,39.14639,1.519149,15.4794,0.928421,-2.755508,-0.2942352,87,88,-0.0600329,3.45324,39.76776,0.0682444,64.84767,1.134834,0.1490448,0.003087851,-0.08374535,-0.9135903,-43.74129,-46.34511,-2.605852,-8.853027,39.60784,0.75,1327.5,30,19,0,30.19608,30.19608,0.8524176,12.39763,-0.22,4.579799,176.1352,348.1,2.411345,5.504884,397,73,4223,0.97,0.920856,-0.5703125,0.983808,-0.1171875,0,0,0,0,0,0,0,0,0,0,0,0,13.02,0,0,0,0,0,0,0,0,0,78,35,0,0,0,0,0,0,0,4,0,0,0,0,0,0,0,0,0,0,0,0,0,0,0,0,0,0,0,0,0,0,0,0,0,0,0,0,0,0,0,0,0,0,0,0,0,0,0,0,0,0,0,0,0,0,0,13,0.2229827,0,13.35241,0.3874547,0.006703772,6.549546,0.4422314,0,0
160.058,39.14639,2.108744,15.48271,10.81902,-1.527588,-4.040573,87,88,5.89806E-16,4.729347,39.76776,0.07155813,90.01564,1.575274,0.3390492,0.1258744,-0.4172468,0.3752898,-42.69076,-46.27343,-2.934689,-8.214417,35.68628,1.07,1345.5,30,19,0,33.72549,34.11765,1.100412,17.92712,0.1,6.35726,168.6673,348.1,3.34721,5.504125,397,73,4223,0.97,1.842688,1.691406,1.791448,1.652344,0,0,0,0,0,0,0,0,0,0,0,0,13.02,0,0,0,0,0,0,0,0,0,78,35,0,0,0,0,0,0,0,0,0,0,0,0,0,0,0,0,0,0,0,0,0,0,0,0,0,0,0,0,0,0,0,0,0,0,0,0,0,0,0,0,0,0,0,0,0,0,0,0,0,0,0,0,0,0,0,13,0.1309473,0,26.71898,0.424256,0.007029286,6.271855,0.4713673,0,0
161.058,39.14639,2.108744,15.48271,-11.72281,14.59557,-1.268234,87,88,5.89806E-16,4.729347,39.76776,0.07155813,90.01564,1.575274,-0.01867507,0.1588188,0.6837515,-2.219106,-44.10406,-45.21409,-5.402143,-8.160828,35.68628,1.07,1345.5,30,19,0,33.72549,34.11765,1.100412,17.92712,0.1,6.35726,168.6673,348.1,3.34721,5.504125,397,73,4223,0.97,1.842688,1.691406,1.791448,1.652344,0,0,0,0,0,0,0,0,0,0,0,0,13.02,0,0,0,0,0,0,0,0,0,78,35,0,0,0,0,0,0,0,0,0,0,0,0,0,0,0,0,0,0,0,0,0,0,0,0,0,0,0,0,0,0,0,0,0,0,0,0,0,0,0,0,0,0,0,0,0,0,0,0,0,0,0,0,0,0,0,13,0.1309473,0,26.71898,0.424256,0.007029286,6.271855,0.4713673,0,0
162.058,39.76776,1.568849,15.48475,7.560974,-1.316284,-1.31633,87,88,0.07992483,3.501591,39.76776,0.07359408,65.92282,1.171961,-0.3645841,-0.4520344,-0.4730889,-3.049752,-43.53481,-45.14703,-5.683578,-9.639389,65.4902,1.14,1352,30,19,0,34.90196,34.90196,0.8964854,19.19219,0.17,4.72963,161.6922,348.1,2.451325,5.503223,397,73,4223,0.97,1.476688,1.195313,1.471808,1.199219,0,0,0,0,0,0,0,0,0,0,0,0,13.02,0,0,0,0,0,0,0,0,0,78,35,0,0,0,0,0,0,0,0,0,0,0,0,0,0,0,0,0,0,0,0,0,0,0,0,0,0,0,0,0,0,0,0,0,0,0,0,0,0,0,0,0,0,0,0,0,0,0,0,0,0,0,0,0,0,0,13,0.1169596,0,21.41198,0.4551492,0.007229281,6.012486,0.5021716,0,0
163.058,40.38913,2.815841,15.48866,-1.325043,3.967468,-7.942123,87,88,0.1546763,7.131404,40.38913,0.07750808,116.5009,2.103489,0.01554935,-0.1226562,1.147624,-4.000109,-45.83287,-45.11586,-3.598877,-10.60168,63.52941,1.17,1191.5,30,19,0,32.94118,33.33333,0.8725737,17.35893,0.2,8.488954,158.6016,348.2,4.332059,5.50285,397,73,4223,0.97,1.513776,1.25,1.508896,1.253906,0,0,0,0,0,0,0,0,0,0,0,0,13.02,0,0,0,0,0,0,0,0,0,78,35,0,0,0,0,0,0,0,0,0,0,0,0,0,0,0,0,0,0,0,0,0,0,0,0,0,0,0,0,0,0,0,0,0,0,0,0,0,0,0,0,0,0,0,0,0,0,0,0,0,0,0,0,0,0,0,13,0.09396213,0,21.94975,0.4886966,0.007613761,5.897565,0.5316176,0,0
164.058,40.38913,2.815841,15.48866,18.67209,0.2404785,-4.511627,87,88,0.1546763,7.131404,40.38913,0.07750808,116.5009,2.103489,-0.3177751,0.3989278,0.571794,-4.879883,-44.01399,-43.43481,-8.506767,-8.709686,63.52941,1.17,1191.5,30,19,0,32.94118,33.33333,0.8725737,17.35893,0.2,8.488954,158.6016,348.2,4.332059,5.50285,397,73,4223,0.97,1.513776,1.25,1.508896,1.253906,0,0,0,0,0,0,0,0,0,0,0,0,13.02,0,0,0,0,0,0,0,0,0,78,35,0,0,0,0,0,0,0,0,0,0,0,0,0,0,0,0,0,0,0,0,0,0,0,0,0,0,0,0,0,0,0,0,0,0,0,0,0,0,0,0,0,0,0,0,0,0,0,0,0,0,0,0,0,0,0,13,0.09396213,0,21.94975,0.4886966,0.007613761,5.897565,0.5316176,0,0
165.058,40.38913,2.815841,15.48866,-0.5667419,-4.863739,-9.659866,87,88,0.1546763,7.131404,40.38913,0.07750808,116.5009,2.103489,-0.01836725,0.2379908,-0.4512826,-3.516142,-43.12376,-43.97342,-6.76519,-9.340057,63.52941,1.17,1191.5,30,19,0,32.94118,33.33333,0.8725737,17.35893,0.2,8.488954,158.6016,348.2,4.332059,5.50285,397,73,4223,0.97,1.513776,1.25,1.508896,1.253906,0,0,0,0,0,0,0,0,0,0,0,0,13.02,0,0,0,0,0,0,0,0,0,78,35,0,0,0,0,0,0,0,0,0,0,0,0,0,0,0,0,0,0,0,0,0,0,0,0,0,0,0,0,0,0,0,0,0,0,0,0,0,0,0,0,0,0,0,0,0,0,0,0,0,0,0,0,0,0,0,13,0.09396213,0,21.94975,0.4886966,0.007613761,5.897565,0.5316176,0,0
166.058,40.38913,2.632983,15.49213,-1.013428,-3.390289,-14.08821,87,88,0.07475144,7.043686,40.38913,0.08097991,108.9355,1.966891,-0.5477978,0.1425902,0.03262843,-3.181334,-43.60873,-44.69431,-5.328663,-9.267105,72.15686,1.18,1128,30,19,0,33.72549,33.72549,0.9543907,16.57426,0.21,7.93769,155.5468,348.2,4.05074,5.502406,397,73,4223,0.97,1.48596,1.195313,1.47376,1.203125,0,0,0,0,0,0,0,0,0,0,0,0,13.02,0,0,0,0,0,0,0,0,0,78,35,0,0,0,0,0,0,0,0,0,0,0,0,0,0,0,0,0,0,0,0,0,0,0,0,0,0,0,0,0,0,0,0,0,0,0,0,0,0,0,0,0,0,0,0,0,0,0,0,0,0,0,0,0,0,0,13,0.07819903,0,21.54642,0.5206144,0.007954804,5.783972,0.5676765,0,0
167.058,41.0105,3.032788,15.49712,3.885437,-3.984283,0.5958862,87,88,0.06348689,8.04194,41.0105,0.08596406,123.5756,2.265553,-0.4722607,0.2025086,0.3786014,-2.487093,-44.81826,-44.77999,-5.575556,-8.716003,70.98039,1.18,1138,30,19,0,34.5098,34.5098,1.022356,16.72119,0.21,9.142987,153.3096,348.2,4.59513,5.502068,397,73,4223,0.97,1.44204,1.128906,1.435696,1.136719,0,0,0,0,0,0,0,0,0,0,0,0,13.02,0,0,0,0,0,0,0,0,0,78,35,0,0,0,0,0,0,0,0,0,0,0,0,0,0,0,0,0,0,0,0,0,0,0,0,0,0,0,0,0,0,0,0,0,0,0,0,0,0,0,0,0,0,0,0,0,0,0,0,0,0,0,0,0,0,0,13,0.06050391,0,20.90958,0.5607218,0.008444407,5.700783,0.5971766,0,0
168.058,41.0105,3.032788,15.49712,-6.41954,-0.7242126,-3.652115,87,88,0.06348689,8.04194,41.0105,0.08596406,123.5756,2.265553,-0.1991265,0.3650554,-0.04763146,-2.858986,-43.39249,-44.47149,-4.227407,-10.37114,70.98039,1.18,1138,30,19,0,34.5098,34.5098,1.022356,16.72119,0.21,9.142987,153.3096,348.2,4.59513,5.502068,397,73,4223,0.97,1.44204,1.128906,1.435696,1.136719,0,0,0,0,0,0,0,0,0,0,0,0,13.02,0,0,0,0,0,0,0,0,0,78,35,0,0,0,0,0,0,0,0,0,0,0,0,0,0,0,0,0,0,0,0,0,0,0,0,0,0,0,0,0,0,0,0,0,0,0,0,0,0,0,0,0,0,0,0,0,0,0,0,0,0,0,0,0,0,0,13,0.06050391,0,20.90958,0.5607218,0.008444407,5.700783,0.5971766,0,0
169.058,41.0105,2.94179,15.50093,-0.5398865,2.291061,0.3095551,87,88,0.06348689,7.77332,41.0105,0.08977505,119.8677,2.197575,0.4035644,-0.2471769,0.9094514,-1.920627,-45.51753,-45.12083,-6.274296,-8.375214,69.41177,1.18,1142,30,19,0,32.94118,32.94118,0.9992588,16.77997,0.21,8.868654,151.4594,348.3,4.457254,5.50174,397,73,4223,0.97,1.56648,1.328125,1.55916,1.347656,0,0,0,0,0,0,0,0,0,0,0,0,13.02,0,0,0,0,0,0,0,0,0,78,35,0,0,0,0,0,0,0,0,0,0,0,0,0,0,0,0,0,0,0,0,0,0,0,0,0,0,0,0,0,0,0,0,0,0,0,0,0,0,0,0,0,0,0,0,0,0,0,0,0,0,0,0,0,0,0,13,0.04482252,0,22.71396,0.5927333,0.008818767,5.631983,0.6277102,0,0
170.058,41.0105,2.94179,15.50093,3.051971,3.364731,-5.03241,87,88,0.06348689,7.77332,41.0105,0.08977505,119.8677,2.197575,0.5108114,-0.316003,0.05494317,-0.9745981,-44.2889,-45.77317,-2.438187,-9.721603,69.41177,1.18,1142,30,19,0,32.94118,32.94118,0.9992588,16.77997,0.21,8.868654,151.4594,348.3,4.457254,5.50174,397,73,4223,0.97,1.56648,1.328125,1.55916,1.347656,0,0,0,0,0,0,0,0,0,0,0,0,13.02,0,0,0,0,0,0,0,0,0,78,35,0,0,0,0,0,0,0,0,0,0,0,0,0,0,0,0,0,0,0,0,0,0,0,0,0,0,0,0,0,0,0,0,0,0,0,0,0,0,0,0,0,0,0,0,0,0,0,0,0,0,0,0,0,0,0,13,0.04482252,0,22.71396,0.5927333,0.008818767,5.631983,0.6277102,0,0
171.058,41.0105,2.695964,15.50463,2.280106,-0.7814789,-10.31743,87,88,5.967449E-16,7.183512,41.0105,0.0934734,109.8512,2.013938,0.1268686,-0.2570409,-0.5179065,-0.8990553,-43.85026,-46.23145,-1.582357,-10.01993,61.17647,1.16,1132.5,30,19,0,29.80392,29.80392,0.9331722,16.35834,0.19,8.127558,149.2674,348.3,4.08479,5.501294,397,73,4223,0.97,1.707512,1.539063,1.699704,1.542969,0,0,0,0,0,0,0,0,0,0,0,0,13.02,0,0,0,0,0,0,0,0,0,78,35,0,0,0,0,0,0,0,0,0,0,0,0,0,0,0,0,0,0,0,0,0,0,0,0,0,0,0,0,0,0,0,0,0,0,0,0,0,0,0,0,0,0,0,0,0,0,0,0,0,0,0,0,0,0,0,13,0.03162605,0,24.75892,0.6262144,0.009182063,5.550474,0.6571751,0,0
172.058,41.0105,2.695964,15.50463,-10.38258,6.388626,-1.719315,87,88,5.967449E-16,7.183512,41.0105,0.0934734,109.8512,2.013938,0.565797,0.2703699,-1.929521,-1.108274,-42.97743,-45.78713,-2.341064,-10.72493,61.17647,1.16,1132.5,30,19,0,29.80392,29.80392,0.9331722,16.35834,0.19,8.127558,149.2674,348.3,4.08479,5.501294,397,73,4223,0.97,1.707512,1.539063,1.699704,1.542969,0,0,0,0,0,0,0,0,0,0,0,0,13.02,0,0,0,0,0,0,0,0,0,78,35,0,0,0,0,0,0,0,0,0,0,0,0,0,0,0,0,0,0,0,0,0,0,0,0,0,0,0,0,0,0,0,0,0,0,0,0,0,0,0,0,0,0,0,0,0,0,0,0,0,0,0,0,0,0,0,13,0.03162605,0,24.75892,0.6262144,0.009182063,5.550474,0.6571751,0,0
173.058,41.0105,2.695964,15.50463,-5.190872,2.532547,-7.142059,87,88,5.967449E-16,7.183512,41.0105,0.0934734,109.8512,2.013938,-0.98055,0.09247757,0.1344519,-3.193053,-44.00818,-44.78609,-4.528072,-11.06657,61.17647,1.16,1132.5,30,19,0,29.80392,29.80392,0.9331722,16.35834,0.19,8.127558,149.2674,348.4,4.08479,5.501294,397,73,4223,0.97,1.707512,1.539063,1.699704,1.542969,0,0,0,0,0,0,0,0,0,0,0,0,13.02,0,0,0,0,0,0,0,0,0,78,35,0,0,0,0,0,0,0,0,0,0,0,0,0,0,0,0,0,0,0,0,0,0,0,0,0,0,0,0,0,0,0,0,0,0,0,0,0,0,0,0,0,0,0,0,0,0,0,0,0,0,0,0,0,0,0,13,0.03162605,0,24.75892,0.6262144,0.009182063,5.550474,0.6571751,0,0
174.058,41.0105,2.163024,15.50747,0.3845978,2.262054,-1.284744,91,93,5.967449E-16,5.791599,41.0105,0.09631948,88.13573,1.615822,-0.2643761,0.2854048,-0.08371538,-2.788605,-44.53888,-44.93644,-4.973501,-10.80902,55.68628,1.11,1127,29,19,0,29.01961,29.01961,0.8566151,15.57722,0.14,6.520898,146.2272,348.4,3.277307,5.500599,416,73,4223,0.97,1.626992,1.425781,1.623576,1.441406,0,0,0,0,0,0,0,0,0,0,0,0,12.98,0,0,0,0,0,0,0,0,0,76,36,0,0,0,0,0,0,0,0,0,0,0,0,0,0,0,0,0,0,0,0,0,0,0,0,0,0,0,0,0,0,0,0,0,0,0,0,0,0,0,0,0,0,0,0,0,0,0,0,0,0,0,0,0,0,0,13,0.03162605,0,23.59138,0.6586974,0.009461639,5.437425,0.710022,0,0
175.058,41.0105,2.163024,15.50747,1.44899,6.240799,0.5084534,91,93,5.967449E-16,5.791599,41.0105,0.09631948,88.13573,1.615822,0.5747756,-0.3153667,-0.5087538,-1.034218,-43.73884,-46.43645,0.3838043,-11.24196,55.68628,1.11,1127,29,19,0,29.01961,29.01961,0.8566151,15.57722,0.14,6.520898,146.2272,348.4,3.277307,5.500599,416,73,4223,0.97,1.626992,1.425781,1.623576,1.441406,0,0,0,0,0,0,0,0,0,0,0,0,12.98,0,0,0,0,0,0,0,0,0,76,36,0,0,0,0,0,0,0,0,0,0,0,0,0,0,0,0,0,0,0,0,0,0,0,0,0,0,0,0,0,0,0,0,0,0,0,0,0,0,0,0,0,0,0,0,0,0,0,0,0,0,0,0,0,0,0,13,0.03162605,0,23.59138,0.6586974,0.009461639,5.437425,0.710022,0,0
176.058,40.38913,1.936309,15.51207,9.931503,-1.623138,0.5626984,91,93,-0.04366639,5.207662,41.0105,0.1009201,80.11169,1.446461,-0.5430368,0.1760709,0.08890769,-2.849183,-43.85682,-45.47303,-3.173676,-10.07335,59.21569,1.11,1122,29,19,0,29.01961,28.62745,0.8437515,15.55943,0.14,5.837416,140.9249,348.5,2.978934,5.499218,416,73,4223,0.97,1.691896,1.515625,1.6836,1.527344,0,0,0,0,0,0,0,0,0,0,0,0,12.98,0,0,0,0,0,0,0,0,0,76,36,0,0,0,0,0,0,0,0,0,0,0,0,0,0,0,0,0,0,0,0,0,0,0,0,0,0,0,0,0,0,0,0,0,0,0,0,0,0,0,0,0,0,0,0,0,0,0,0,0,0,0,0,0,0,0,13,0.03489935,0,24.53249,0.7161263,0.009913562,5.240261,0.7392498,0,0
177.058,40.38913,1.936309,15.51207,7.948745,-6.370667,8.592484,91,93,-0.04366639,5.207662,41.0105,0.1009201,80.11169,1.446461,0.3389567,-0.2484632,-0.7608235,-3.20584,-43.53652,-44.49829,-3.922449,-10.823,59.21569,1.11,1122,29,19,0,29.01961,28.62745,0.8437515,15.55943,0.14,5.837416,140.9249,348.4,2.978934,5.499218,416,73,4223,0.97,1.691896,1.515625,1.6836,1.527344,0,0,0,0,0,0,0,0,0,0,0,0,12.98,0,0,0,0,0,0,0,0,0,76,36,0,0,0,0,0,0,0,0,0,0,0,0,0,0,0,0,0,0,0,0,0,0,0,0,0,0,0,0,0,0,0,0,0,0,0,0,0,0,0,0,0,0,0,0,0,0,0,0,0,0,0,0,0,0,0,13,0.03489935,0,24.53249,0.7161263,0.009913562,5.240261,0.7392498,0,0
178.058,40.38913,2.064232,15.51476,-16.10783,-3.732041,-8.015991,91,93,-0.04366639,5.546765,41.0105,0.1036009,85.40431,1.542022,0.4222772,-0.08703817,-1.242648,-3.149662,-44.09216,-44.6269,-4.652411,-10.56357,57.64706,1.11,1123,29,19,0,29.01961,29.41176,0.8496517,15.5733,0.14,6.223069,138.6016,348.5,3.175739,5.498526,416,73,4223,0.97,1.61528,1.40625,1.619184,1.433594,0,0,0,0,0,0,0,0,0,0,0,0,12.98,0,0,0,0,0,0,0,0,0,76,36,0,0,0,0,0,0,0,0,0,0,0,0,0,0,0,0,0,0,0,0,0,0,0,0,0,0,0,0,0,0,0,0,0,0,0,0,0,0,0,0,0,0,0,0,0,0,0,0,0,0,0,0,0,0,0,13,0.03489935,0,23.42156,0.747473,0.01017691,5.153867,0.7697612,0,0
179.058,40.38913,2.262642,15.51786,16.35947,-2.450745,-1.429886,91,93,5.967449E-16,6.031572,41.0105,0.1067086,93.61322,1.690239,0.6265044,0.2342552,-0.9836089,-1.964397,-42.18822,-44.64849,-4.91165,-10.11327,69.01961,1.14,1132,29,19,0,31.76471,31.37255,0.9558088,16.12238,0.17,6.821219,136.7176,348.5,3.480986,5.497896,416,73,4223,0.97,1.599664,1.378906,1.59576,1.402344,0,0,0,0,0,0,0,0,0,0,0,0,12.98,0,0,0,0,0,0,0,0,0,76,36,0,0,0,0,0,0,0,0,0,0,0,0,0,0,0,0,0,0,0,0,0,0,0,0,0,0,0,0,0,0,0,0,0,0,0,0,0,0,0,0,0,0,0,0,0,0,0,0,0,0,0,0,0,0,0,13,0.03489935,0,23.19513,0.7805041,0.01048218,5.083811,0.7992672,0,0
180.058,40.38913,2.262642,15.51786,-5.587784,-0.5162354,14.10378,91,93,5.967449E-16,6.031572,41.0105,0.1067086,93.61322,1.690239,-0.1499787,-0.6781833,0.2005983,-2.22359,-41.81696,-44.80262,-6.053421,-9.516083,69.01961,1.14,1132,29,19,0,31.76471,31.37255,0.9558088,16.12238,0.17,6.821219,136.7176,348.5,3.480986,5.497896,416,73,4223,0.97,1.599664,1.378906,1.59576,1.402344,0,0,0,0,0,0,0,0,0,0,0,0,12.98,0,0,0,0,0,0,0,0,0,76,36,0,0,0,0,0,0,0,0,0,0,0,0,0,0,0,0,0,0,0,0,0,0,0,0,0,0,0,0,0,0,0,0,0,0,0,0,0,0,0,0,0,0,0,0,0,0,0,0,0,0,0,0,0,0,0,13,0.03489935,0,23.19513,0.7805041,0.01048218,5.083811,0.7992672,0,0
181.058,40.38913,2.262642,15.51786,3.248306,2.147583,4.124512,91,93,5.967449E-16,6.031572,41.0105,0.1067086,93.61322,1.690239,0.8818973,0.3933961,-0.3369223,-0.4416902,-40.959,-45.16484,-2.31394,-10.91199,69.01961,1.14,1132,29,19,0,31.76471,31.37255,0.9558088,16.12238,0.17,6.821219,136.7176,348.4,3.480986,5.497896,416,73,4223,0.97,1.599664,1.378906,1.59576,1.402344,0,0,0,0,0,0,0,0,0,0,0,0,12.98,0,0,0,0,0,0,0,0,0,76,36,0,0,0,0,0,0,0,0,0,0,0,0,0,0,0,0,0,0,0,0,0,0,0,0,0,0,0,0,0,0,0,0,0,0,0,0,0,0,0,0,0,0,0,0,0,0,0,0,0,0,0,0,0,0,0,13,0.03489935,0,23.19513,0.7805041,0.01048218,5.083811,0.7992672,0,0
182.058,41.0105,2.51306,15.52118,1.117737,-5.686157,3.817215,91,93,0.07845071,6.731823,41.0105,0.1100314,102.3985,1.877306,-0.2292712,-0.1325027,-0.1528986,-1.956962,-40.73312,-44.37131,-3.555906,-11.4641,61.56863,1.13,1126.5,30,19,0,30.19608,30.58824,0.8796217,15.90331,0.16,7.576156,135.3465,348.5,3.807664,5.497373,416,73,4223,0.97,1.387384,1.011719,1.399584,1.046875,0,0,0,0,0,0,0,0,0,0,0,0,12.98,0,0,0,0,0,0,0,0,0,76,36,0,0,0,0,0,0,0,0,0,0,0,0,0,0,0,0,0,0,0,0,0,0,0,0,0,0,0,0,0,0,0,0,0,0,0,0,0,0,0,0,0,0,0,0,0,0,0,0,0,0,0,0,0,0,0,13,0.03460453,0,20.11707,0.8129614,0.01080859,5.032826,0.8346106,0,0
183.058,41.0105,2.517479,15.52519,3.951203,3.04834,5.010254,91,93,0.07845071,6.710896,41.0105,0.1140331,102.5786,1.880607,-0.5345537,-0.3197951,-0.4849207,-2.926998,-41.32693,-43.81079,-4.097572,-12.13779,66.27451,1.15,1132,30,19,0,32.54902,32.54902,0.9959148,16.21016,0.18,7.589478,133.8421,348.4,3.814359,5.496747,416,73,4223,0.97,1.526464,1.269531,1.525,1.296875,0,0,0,0,0,0,0,0,0,0,0,0,12.98,0,0,0,0,0,0,0,0,0,76,36,0,0,0,0,0,0,0,0,0,0,0,0,0,0,0,0,0,0,0,0,0,0,0,0,0,0,0,0,0,0,0,0,0,0,0,0,0,0,0,0,0,0,0,0,0,0,0,0,0,0,0,0,0,0,0,13,0.01965424,0,22.13373,0.8519974,0.01120168,4.976888,0.8641049,0,0
184.058,41.0105,2.517479,15.52519,8.926727,5.517151,12.8636,91,93,0.07845071,6.710896,41.0105,0.1140331,102.5786,1.880607,0.2248565,0.1998747,1.839629,-3.645871,-43.14431,-43.41304,-5.863853,-10.823,66.27451,1.15,1132,30,19,0,32.54902,32.54902,0.9959148,16.21016,0.18,7.589478,133.8421,348.4,3.814359,5.496747,416,73,4223,0.97,1.526464,1.269531,1.525,1.296875,0,0,0,0,0,0,0,0,0,0,0,0,12.98,0,0,0,0,0,0,0,0,0,76,36,0,0,0,0,0,0,0,0,0,0,0,0,0,0,0,0,0,0,0,0,0,0,0,0,0,0,0,0,0,0,0,0,0,0,0,0,0,0,0,0,0,0,0,0,0,0,0,0,0,0,0,0,0,0,0,13,0.01965424,0,22.13373,0.8519974,0.01120168,4.976888,0.8641049,0,0
185.058,41.0105,2.634246,15.52867,5.434265,-3.091476,5.838531,91,93,5.967449E-16,6.982071,41.0105,0.1175124,107.3364,1.967834,0.5071152,-0.1173293,-0.1793399,1.355419,-39.75129,-43.91774,-3.74391,-10.25887,65.09804,1.16,1138.5,30,19,0,32.15686,32.54902,0.9634082,16.44501,0.19,7.941496,132.8425,348.5,3.991278,5.496273,416,73,4223,0.97,1.523048,1.269531,1.52744,1.292969,0,0,0,0,0,0,0,0,0,0,0,0,12.98,0,0,0,0,0,0,0,0,0,76,36,0,0,0,0,0,0,0,0,0,0,0,0,0,0,0,0,0,0,0,0,0,0,0,0,0,0,0,0,0,0,0,0,0,0,0,0,0,0,0,0,0,0,0,0,0,0,0,0,0,0,0,0,0,0,0,13,0.01965424,0,22.0842,0.884599,0.01154345,4.939718,0.8946373,0,0
186.058,41.0105,2.634246,15.52867,12.24641,1.316681,2.666656,91,93,5.967449E-16,6.982071,41.0105,0.1175124,107.3364,1.967834,0.1733852,-0.696741,1.38061,-1.513449,-43.50295,-44.78714,-4.816198,-10.05109,65.09804,1.16,1138.5,30,19,0,32.15686,32.54902,0.9634082,16.44501,0.19,7.941496,132.8425,348.6,3.991278,5.496273,416,73,4223,0.97,1.523048,1.269531,1.52744,1.292969,0,0,0,0,0,0,0,0,0,0,0,0,12.98,0,0,0,0,0,0,0,0,0,76,36,0,0,0,0,0,0,0,0,0,0,0,0,0,0,0,0,0,0,0,0,0,0,0,0,0,0,0,0,0,0,0,0,0,0,0,0,0,0,0,0,0,0,0,0,0,0,0,0,0,0,0,0,0,0,0,13,0.01965424,0,22.0842,0.884599,0.01154345,4.939718,0.8946373,0,0
187.058,41.0105,2.450298,15.53201,-2.372574,9.574783,5.582138,91,93,5.967449E-16,6.505946,41.0105,0.1208552,99.84115,1.830421,0.07047623,0.3192349,0.2002206,-4.100221,-42.32066,-43.7789,-7.19276,-10.82245,57.64706,1.15,1136.5,30,19,0,30.58824,30.58824,0.9071204,16.2746,0.18,7.386946,131.6414,348.6,3.71257,5.495705,416,73,4223,0.97,1.728496,1.570313,1.72508,1.585938,0,0,0,0,0,0,0,0,0,0,0,0,12.98,0,0,0,0,0,0,0,0,0,76,36,0,0,0,0,0,0,0,0,0,0,0,0,0,0,0,0,0,0,0,0,0,0,0,0,0,0,0,0,0,0,0,0,0,0,0,0,0,0,0,0,0,0,0,0,0,0,0,0,0,0,0,0,0,0,0,13,0.006956865,0,25.06319,0.918064,0.01187183,4.895054,0.9240198,0,0
188.058,41.0105,2.450298,15.53201,-28.57677,-11.33279,11.14552,91,93,5.967449E-16,6.505946,41.0105,0.1208552,99.84115,1.830421,-0.4943932,-0.7438528,0.8542137,5.69091,-47.73967,-47.31497,-10.62698,1.502319,57.64706,1.15,1136.5,30,19,0,30.58824,30.58824,0.9071204,16.2746,0.18,7.386946,131.6414,348.6,3.71257,5.495705,416,73,4223,0.97,1.728496,1.570313,1.72508,1.585938,0,0,0,0,0,0,0,0,0,0,0,0,12.98,0,0,0,0,0,0,0,0,0,76,36,0,0,0,0,0,0,0,0,0,0,0,0,0,0,0,0,0,0,0,0,0,0,0,0,0,0,0,0,0,0,0,0,0,0,0,0,0,0,0,0,0,0,0,0,0,0,0,0,0,0,0,0,0,0,0,13,0.006956865,0,25.06319,0.918064,0.01187183,4.895054,0.9240198,0,0
189.058,41.0105,2.098976,15.53479,0.3174591,-8.386688,-7.665329,91,93,5.967449E-16,5.58788,41.0105,0.1236396,85.52601,1.567977,0.08498541,0.5591014,-0.4674729,-6.006682,-43.69939,-48.67337,-9.243271,-10.34663,56.47059,1.12,1133.5,30,19,0,29.01961,29.01961,0.8790386,15.8082,0.15,6.327812,130.0618,348.6,3.180265,5.494988,416,73,4223,0.97,1.68848,1.507813,1.67872,1.519531,0,0,0,0,0,0,0,0,0,0,0,0,12.98,0,0,0,0,0,0,0,0,0,76,36,0,0,0,0,0,0,0,0,0,0,0,0,0,0,0,0,0,0,0,0,0,0,0,0,0,0,0,0,0,0,0,0,0,0,0,0,0,0,0,0,0,0,0,0,0,0,0,0,0,0,0,0,0,0,0,13,0.006956865,0,24.48296,0.950622,0.01214534,4.836316,0.9597842,0,0
190.058,41.0105,2.098976,15.53479,11.74132,-7.053543,-5.824966,91,93,5.967449E-16,5.58788,41.0105,0.1236396,85.52601,1.567977,-0.1511842,0.1164246,-0.3737889,-4.733152,-42.10752,-48.26603,-8.719231,-9.707809,56.47059,1.12,1133.5,30,19,0,29.01961,29.01961,0.8790386,15.8082,0.15,6.327812,130.0618,348.6,3.180265,5.494988,416,73,4223,0.97,1.68848,1.507813,1.67872,1.519531,0,0,0,0,0,0,0,0,0,0,0,0,12.98,0,0,0,0,0,0,0,0,0,76,36,0,0,0,0,0,0,0,0,0,0,0,0,0,0,0,0,0,0,0,0,0,0,0,0,0,0,0,0,0,0,0,0,0,0,0,0,0,0,0,0,0,0,0,0,0,0,0,0,0,0,0,0,0,0,0,13,0.006956865,0,24.48296,0.950622,0.01214534,4.836316,0.9597842,0,0
191.058,41.0105,2.051182,15.53806,-8.926712,4.257889,8.530746,91,93,5.967449E-16,5.434272,41.0105,0.126907,83.57854,1.532273,-0.2535474,-0.2808264,-0.3057259,-6.076842,-40.27934,-48.25541,-7.184887,-11.61151,75.68627,1.13,1139,30,19,0,33.33333,33.72549,0.8792396,16.02674,0.16,6.183725,128.2478,348.7,3.107848,5.49411,416,73,4223,0.97,1.49816,1.222656,1.495232,1.242188,0,0,0,0,0,0,0,0,0,0,0,0,12.98,0,0,0,0,0,0,0,0,0,76,36,0,0,0,0,0,0,0,0,0,0,0,0,0,0,0,0,0,0,0,0,0,0,0,0,0,0,0,0,0,0,0,0,0,0,0,0,0,0,0,0,0,0,0,0,0,0,0,0,0,0,0,0,0,0,0,13,0.006956865,0,21.72332,0.9895449,0.01246631,4.768867,0.9892566,0,0
192.058,41.0105,2.051182,15.53806,13.80478,-3.581131,1.71405,91,93,5.967449E-16,5.434272,41.0105,0.126907,83.57854,1.532273,-0.09423098,-0.4332749,-0.7448844,-5.159967,-39.48096,-45.87804,-9.297447,-10.04248,75.68627,1.13,1139,30,19,0,33.33333,33.72549,0.8792396,16.02674,0.16,6.183725,128.2478,348.8,3.107848,5.49411,416,73,4223,0.97,1.49816,1.222656,1.495232,1.242188,0,0,0,0,0,0,0,0,0,0,0,0,12.98,0,0,0,0,0,0,0,0,0,76,36,0,0,0,0,0,0,0,0,0,0,0,0,0,0,0,0,0,0,0,0,0,0,0,0,0,0,0,0,0,0,0,0,0,0,0,0,0,0,0,0,0,0,0,0,0,0,0,0,0,0,0,0,0,0,0,13,0.006956865,0,21.72332,0.9895449,0.01246631,4.768867,0.9892566,0,0
