Time (sec),Vehicle speed (MPH),Fuel rate (l/hr),Total CO2 (kg), Rotation Rate X (deg/s), Rotation Rate Y (deg/s), Rotation Rate Z (deg/s), Engine coolant temperature (°C),Engine coolant temperature 1 (°C),Acceleration (m/s²),Engine Torque (kg•m),Max Speed (MPH),Total Trip CO2 (kg),Instant CO2 rate (g/km),CO2 flow (g/s), Accel X (m/s²), Accel Y (m/s²), Accel Z (m/s²), Roll (deg), Pitch (deg),Magnetometer X (µT), Magnetometer Y (µT), Magnetometer Z (µT),Calculated load value (%), Intake manifold absolute pressure (bar), Engine RPM (RPM), Intake air temperature (°C), Ambient air temperature (°C), Absolute throttle position B (%), Accelerator pedal position D (%), Accelerator pedal position E (%), Intake manifold absolute pressure (bar), Mass air flow rate (g/s), Boost (bar),Engine Power (kW),Average Trip CO2 Rate (g/km),Altitude (m),Instant fuel economy (l/100 km),Total fuel economy (l/100 km), Time since engine start (sec), Number of warm-ups since DTCs cleared, Distance traveled since DTCs cleared (km), Barometric pressure (bar),O2 sensor lambda wide range (current probe)  (Bank 1  Sensor 1),O2 sensor current wide range (Bank 1  Sensor 1) (mA),O2 sensor lambda wide range (current probe)  (Bank 1  Sensor 2),O2 sensor current wide range (Bank 1  Sensor 2) (mA),O2 sensor lambda wide range (current probe)  (Bank 1  Sensor 3),O2 sensor current wide range (Bank 1  Sensor 3) (mA),O2 sensor lambda wide range (current probe)  (Bank 1  Sensor 4),O2 sensor current wide range (Bank 1  Sensor 4) (mA),O2 sensor lambda wide range (current probe)  (Bank 2  Sensor 1),O2 sensor current wide range (Bank 2  Sensor 1) (mA),O2 sensor lambda wide range (current probe)  (Bank 2  Sensor 2),O2 sensor current wide range (Bank 2  Sensor 2) (mA),O2 sensor lambda wide range (current probe)  (Bank 2  Sensor 3),O2 sensor current wide range (Bank 2  Sensor 3) (mA),O2 sensor lambda wide range (current probe)  (Bank 2  Sensor 4),O2 sensor current wide range (Bank 2  Sensor 4) (mA), Control module voltage (V), Absolute throttle position C (%), Mass air flow sensor B (g/s), Relative throttle B position (%), Commanded boost pressure A (bar), Boost pressure sensor A (bar), Commanded boost pressure B (bar), Boost pressure sensor B (bar), Boost pressure A control status, Boost pressure B control status,Charge air cooler temperature bank 1  sensor 1 (°C),Charge air cooler temperature bank 1  sensor 2 (°C), Manifold surface temperature (°C), Intake manifold absolute pressure A (bar), Intake manifold absolute pressure B (bar),Total run time with EI-AECD #11 Timer 1 active (sec),Total run time with EI-AECD #11 Timer 2 active (sec),Total run time with EI-AECD #12 Timer 1 active (sec),Total run time with EI-AECD #12 Timer 2 active (sec), Diesel aftertreatment status,O2 sensor concentration bank 1 sensor 1 (%),O2 sensor concentration bank 1 sensor 2 (%),O2 sensor concentration bank 2 sensor 1 (%),O2 sensor concentration bank 2 sensor 2 (%), Absolute throttle position G (%),Target SCR Catalyst NH3 Storage A (g/L),Actual/Modelled SCR Catalyst NH3 Storage A (g/L),Target SCR Catalyst NH3 Storage B (g/L),Actual/Modelled SCR Catalyst NH3 Storage B (g/L), Hydrocarbon Doser Flow Rate (g/min), Hydrocarbon Doser Injector Duty Cycle (%),O2 sensor concentration bank 1 sensor 3 (%),O2 sensor concentration bank 1 sensor 4 (%),O2 sensor concentration bank 2 sensor 3 (%),O2 sensor concentration bank 2 sensor 4 (%),O2 sensor lambda bank 1 sensor 3,O2 sensor lambda bank 1 sensor 4,O2 sensor lambda bank 2 sensor 3,O2 sensor lambda bank 2 sensor 4, Engine Fuel Rate (g/s), Vehicle Fuel Rate (g/s), Engine Exhaust Flow Rate (g/s),Fuel System A Use Percentage Bank 1 (%),Fuel System A Use Percentage Bank 2 (%), Cylinder Fuel Rate, Transmission Actual Gear Status, Transmission Actual Gear Ratio, Vehicle Odometer Reading (km), Motorcycle ABS Disable Switch State, Maximum Current Vehicle Speed Limit (MPH), Alternative Fuel Tank Pressure (bar), Alternative Fuel Tank Temperature (°C),Crankcase Pressure Sensor (inH2O),Fuel System Status Bank 1,Fuel System Status Bank 2,Short Term Fuel Trim Bank 1 (%),Long Term Fuel Trim Bank 1 (%),Short Term Fuel Trim Bank 2 (%),Long Term Fuel Trim Bank 2 (%),O2 Sensor Concentration Bank 1 Sensor 5 (%),O2 Sensor Concentration Bank 1 Sensor 6 (%),O2 Sensor Concentration Bank 2 Sensor 5 (%),O2 Sensor Concentration Bank 2 Sensor 6 (%),O2 Sensor Lambda Bank 1 Sensor 5,O2 Sensor Lambda Bank 1 Sensor 6,O2 Sensor Lambda Bank 2 Sensor 5,O2 Sensor Lambda Bank 2 Sensor 6, Input voltage read by the scan tool (V), Acceleration (Avg) (m/s²), A/F Commanded, A/F Actual,Trip Distance (km), Trip Fuel (gal),Trip Fuel Economy (l/100 km),Trip Duration (min), Idling Count, Seconds Idling (sec)
0.000,0,0,0,-11.01993,1.423767,-8.198532,0,0,-0.4642989,0,0,0,0,0,-0.4738311,0.2294055,0.7809801,0.61747,-51.67048,-26.78962,-7.107071,-9.037994,30.19608,0,0,0,0,0,0,0,0,0,0,0,0,339.3,0,5.559861,0,0,0,0,0,0,0,0,0,0,0,0,0,0,0,0,0,0,0,0,0,0,0,0,0,0,0,0,0,0,0,0,0,0,0,0,0,0,0,0,0,0,0,0,0,0,0,0,0,0,0,0,0,0,0,0,0,0,0,0,0,0,0,0,0,0,0,0,0,0,0,0,0,0,0,0,0,0,0,0,0,0,0,0,0,0,0,0,-0.1185775,0,0,0,0,0,0,1,4E-06
1.000,0,0,0,9.998383,13.41716,23.92004,0,0,-0.4642989,0,0,0,0,0,0.2970155,-0.4957759,0.2702887,2.108167,-55.14534,-30.50765,-1.60627,-9.096024,30.19608,0,0,0,0,0,0,0,0,0,0,0,0,339.3,0,5.559861,0,0,0,0,0,0,0,0,0,0,0,0,0,0,0,0,0,0,0,0,0,0,0,0,0,0,0,0,0,0,0,0,0,0,0,0,0,0,0,0,0,0,0,0,0,0,0,0,0,0,0,0,0,0,0,0,0,0,0,0,0,0,0,0,0,0,0,0,0,0,0,0,0,0,0,0,0,0,0,0,0,0,0,0,0,0,0,0,-0.1185775,0,0,0,0,0,0,1,4E-06
2.002,0,0,0,-24.59189,16.16939,-5.409592,0,0,-0.4642989,0,0,0,0,0,0.9608061,0.007504389,-0.1177105,5.467066,-54.24672,-24.79682,16.08938,-17.61832,30.19608,0,0,0,0,0,0,0,0,0,0,0,0,339.3,0,5.559861,0,0,0,0,0,0,0,0,0,0,0,0,0,0,0,0,0,0,0,0,0,0,0,0,0,0,0,0,0,0,0,0,0,0,0,0,0,0,0,0,0,0,0,0,0,0,0,0,0,0,0,0,0,0,0,0,0,0,0,0,0,0,0,0,0,0,0,0,0,0,0,0,0,0,0,0,0,0,0,0,0,0,0,0,0,0,0,0,-0.1185775,0,0,0,0,0,0,1,4E-06
3.000,0,0.5956902,18.5062,-8.984192,-10.72736,5.108353,90,89,-0.0008429792,2.403144,0,0.0003324419,0,0.4449924,0.867636,0.2052185,-0.1302061,2.167644,-51.68769,-16.68969,20.87254,-29.34709,29.01961,0.93,748,37,23,0,15.29412,14.90196,0,8.957673,-0.07,1.795835,0,339.1,0,5.559961,611,73,4255,0.97,2.454152,2.179688,2.379976,2.171875,0,0,0,0,0,0,0,0,0,0,0,0,12.94,0,0,0,0,0,0,0,0,0,68,46,0,0,0,0,0,0,0,0,0,0,0,0,0,0,0,0,0,0,0,0,0,0,0,0,0,0,0,0,0,0,0,0,0,0,0,0,0,0,0,0,0,0,0,0,0,0,0,0,0,0,0,0,0,0,0,13,-0.05745013,0,35.58521,0,3.265637E-05,0,0.06143832,1,3.259208
4.000,0,0.5956902,18.5062,26.27185,-12.27118,-64.60014,90,89,-0.0008429792,2.403144,0,0.0003324419,0,0.4449924,-0.7064924,1.118732,-1.542831,6.486705,-37.85211,-11.77589,6.49909,-28.94641,29.01961,0.93,748,37,23,0,15.29412,14.90196,0,8.957673,-0.07,1.795835,0,339.1,0,5.559961,611,73,4255,0.97,2.454152,2.179688,2.379976,2.171875,0,0,0,0,0,0,0,0,0,0,0,0,12.94,0,0,0,0,0,0,0,0,0,68,46,0,0,0,0,0,0,0,0,0,0,0,0,0,0,0,0,0,0,0,0,0,0,0,0,0,0,0,0,0,0,0,0,0,0,0,0,0,0,0,0,0,0,0,0,0,0,0,0,0,0,0,0,0,0,0,13,-0.05745013,0,35.58521,0,3.265637E-05,0,0.06143832,1,3.259208
5.000,2.485485,0.8298433,18.5082,10.24576,20.66394,1.480728,90,89,0.1734837,2.040857,2.485485,0.002325036,557.9185,0.6199094,-0.2540352,0.5183646,1.058582,7.714693,-36.66159,-21.65206,8.173481,-30.05957,50.58823,1.04,1227,37,23,0,25.4902,24.70588,1.073159,15.53126,0.07,2.50174,653.4365,339.1,20.74607,5.5604,611,73,4255,0.97,2.026176,1.84375,1.755824,1.617188,0,0,0,0,0,0,0,0,0,0,0,0,12.94,0,0,0,0,0,0,0,0,0,68,46,0,0,0,0,0,0,0,0,0,0,0,0,0,0,0,0,0,0,0,0,0,0,0,0,0,0,0,0,0,0,0,0,0,0,0,0,0,0,0,0,0,0,0,0,0,0,0,0,0,0,0,0,0,0,0,13,-0.02275339,0,29.37955,0.003558167,0.0002283925,24.29788,0.09120267,1,5.045057
6.001,2.485485,0.8298433,18.5082,2.393829,16.05339,12.8387,90,89,0.1734837,2.040857,2.485485,0.002325036,557.9185,0.6199094,0.8655351,0.2802955,-0.4511094,11.34911,-34.34834,-18.05575,7.763466,-36.79756,50.58823,1.04,1227,37,23,0,25.4902,24.70588,1.073159,15.53126,0.07,2.50174,653.4365,339,20.74607,5.5604,611,73,4255,0.97,2.026176,1.84375,1.755824,1.617188,0,0,0,0,0,0,0,0,0,0,0,0,12.94,0,0,0,0,0,0,0,0,0,68,46,0,0,0,0,0,0,0,0,0,0,0,0,0,0,0,0,0,0,0,0,0,0,0,0,0,0,0,0,0,0,0,0,0,0,0,0,0,0,0,0,0,0,0,0,0,0,0,0,0,0,0,0,0,0,0,13,-0.02275339,0,29.37955,0.003558167,0.0002283925,24.29788,0.09120267,1,5.045057
7.001,5.592341,1.060163,18.5096,14.75328,22.65404,12.05548,90,89,0.5640601,3.14412,5.592341,0.00372886,316.785,0.7919626,-0.05259212,0.3672392,-0.2800807,9.06116,-36.88599,-20.28472,16.62761,-38.56924,21.96078,1.02,1017.5,37,23,0,15.29412,15.68627,0.479446,12.63175,0.05,3.196087,465.9232,339.1,11.77958,5.560622,611,73,4255,0.97,2.333616,2.0625,2.311168,2.089844,0,0,0,0,0,0,0,0,0,0,0,0,12.94,0,0,0,0,0,0,0,0,0,68,46,0,0,0,0,0,0,0,0,0,0,0,0,0,0,0,0,0,0,0,0,0,0,0,0,0,0,0,0,0,0,0,0,0,0,0,0,0,0,0,0,0,0,0,0,0,0,0,0,0,0,0,0,0,0,0,13,0.09490484,0,33.83743,0.008003164,0.0003662927,17.32524,0.1216842,1,6.87395
8.001,5.592341,1.060163,18.5096,5.056366,20.12773,19.20021,90,89,0.5640601,3.14412,5.592341,0.00372886,316.785,0.7919626,-0.1406317,0.2447786,-0.2711666,6.809198,-33.7101,-18.41219,20.11057,-46.0605,21.96078,1.02,1017.5,37,23,0,15.29412,15.68627,0.479446,12.63175,0.05,3.196087,465.9232,339.1,11.77958,5.560622,611,73,4255,0.97,2.333616,2.0625,2.311168,2.089844,0,0,0,0,0,0,0,0,0,0,0,0,12.94,0,0,0,0,0,0,0,0,0,68,46,0,0,0,0,0,0,0,0,0,0,0,0,0,0,0,0,0,0,0,0,0,0,0,0,0,0,0,0,0,0,0,0,0,0,0,0,0,0,0,0,0,0,0,0,0,0,0,0,0,0,0,0,0,0,0,13,0.09490484,0,33.83743,0.008003164,0.0003662927,17.32524,0.1216842,1,6.87395
9.001,6.213712,0.7533303,18.51063,-3.052338,12.43056,-3.407593,90,89,0.4665616,1.901502,6.213712,0.004754668,202.591,0.5627527,0.5296733,-0.2204134,-0.07498495,3.854278,-36.23926,-16.89264,25.8232,-47.75128,62.35294,1.07,1195.5,37,23,0,29.80392,29.80392,0.9463775,15.56905,0.1,2.271075,363.4929,339.1,7.533298,5.560702,611,73,4255,0.97,1.403488,1.039063,1.411784,1.074219,0,0,0,0,0,0,0,0,0,0,0,0,12.94,0,0,0,0,0,0,0,0,0,68,46,0,0,0,0,0,0,0,0,0,0,0,0,0,0,0,0,0,0,0,0,0,0,0,0,0,0,0,0,0,0,0,0,0,0,0,0,0,0,0,0,0,0,0,0,0,0,0,0,0,0,0,0,0,0,0,13,0.1101019,0,20.35058,0.0130805,0.0004670597,13.5164,0.1511544,1,6.87395
10.001,6.213712,0.7533303,18.51063,-4.493118,16.76189,3.933319,90,89,0.4665616,1.901502,6.213712,0.004754668,202.591,0.5627527,-0.2015463,-0.493312,0.2236429,-4.253076,-38.51455,-4.311356,30.05555,-50.98331,62.35294,1.07,1195.5,37,23,0,29.80392,29.80392,0.9463775,15.56905,0.1,2.271075,363.4929,339.1,7.533298,5.560702,611,73,4255,0.97,1.403488,1.039063,1.411784,1.074219,0,0,0,0,0,0,0,0,0,0,0,0,12.94,0,0,0,0,0,0,0,0,0,68,46,0,0,0,0,0,0,0,0,0,0,0,0,0,0,0,0,0,0,0,0,0,0,0,0,0,0,0,0,0,0,0,0,0,0,0,0,0,0,0,0,0,0,0,0,0,0,0,0,0,0,0,0,0,0,0,13,0.1101019,0,20.35058,0.0130805,0.0004670597,13.5164,0.1511544,1,6.87395
11.001,9.320568,2.188195,18.51353,7.789078,9.089691,-1.214844,90,89,0.4670974,5.612485,9.320568,0.007661143,392.3101,1.634625,-0.4145809,-1.111713,1.145215,-0.06188651,-44.68948,-18.8578,38.18507,-47.34317,73.33334,1.09,1176.5,39,23,0,30.58824,30.58824,0.8240258,15.608,0.12,6.596783,374.1034,339.1,14.58796,5.561243,611,73,4255,0.97,1.562088,1.339844,1.5494,1.316406,0,0,0,0,0,0,0,0,0,0,0,0,12.94,0,0,0,0,0,0,0,0,0,68,46,0,0,0,0,0,0,0,0,0,0,0,0,0,0,0,0,0,0,0,0,0,0,0,0,0,0,0,0,0,0,0,0,0,0,0,0,0,0,0,0,0,0,0,0,0,0,0,0,0,0,0,0,0,0,0,13,0.2037344,0,22.65028,0.02047868,0.0007525681,13.91095,0.1862231,1,6.87395
12.003,12.42742,2.431875,18.51735,34.78766,21.84,-1.187256,90,89,0.7230967,5.39193,12.42742,0.01147645,326.9987,1.816659,1.011455,-1.216624,0.5523885,9.470012,-56.25874,-14.12992,51.35258,-39.21799,30.19608,1.06,1361,39,23,0,15.29412,14.90196,0.796344,17.44621,0.09,7.331408,357.5244,339.1,12.15937,5.561867,611,73,4255,0.97,9.157808,3.394531,4.83852,3.054688,0,0,0,0,0,0,0,0,0,0,0,0,12.94,0,0,0,0,0,0,0,0,0,68,46,0,0,0,0,0,0,0,0,0,0,0,0,0,0,0,0,0,0,0,0,0,0,0,0,0,0,0,0,0,0,0,0,0,0,0,0,0,0,0,0,0,0,0,0,0,0,0,0,0,0,0,0,0,0,0,13,0.2701313,0,132.7882,0.03209978,0.001127353,13.29446,0.2156405,1,6.87395
13.001,12.42742,2.431875,18.51735,18.03545,3.524506,9.442932,90,89,0.7230967,5.39193,12.42742,0.01147645,326.9987,1.816659,1.267472,-0.07196879,-1.506742,21.76604,-46.36392,-12.93875,36.78063,-62.45241,30.19608,1.06,1361,39,23,0,15.29412,14.90196,0.796344,17.44621,0.09,7.331408,357.5244,339.1,12.15937,5.561867,611,73,4255,0.97,9.157808,3.394531,4.83852,3.054688,0,0,0,0,0,0,0,0,0,0,0,0,12.94,0,0,0,0,0,0,0,0,0,68,46,0,0,0,0,0,0,0,0,0,0,0,0,0,0,0,0,0,0,0,0,0,0,0,0,0,0,0,0,0,0,0,0,0,0,0,0,0,0,0,0,0,0,0,0,0,0,0,0,0,0,0,0,0,0,0,13,0.2701313,0,132.7882,0.03209978,0.001127353,13.29446,0.2156405,1,6.87395
14.001,10.56331,0.6840715,18.51825,12.32727,17.55574,12.6631,90,89,0.09748317,1.849687,12.42742,0.0123797,108.2149,0.511015,0.1491065,0.5255643,-0.2937227,19.31412,-45.80983,-6.567669,37.46692,-57.81665,0,1,1116,39,23,0,16.47059,18.03922,0.4702682,13.49589,0.03,2.06228,305.7447,339.2,4.023947,5.561761,611,73,4255,0.97,10.7726,3.398438,15.9903,3.660156,0,0,0,0,0,0,0,0,0,0,0,0,12.94,0,0,0,0,0,0,0,0,0,68,46,0,0,0,0,0,0,0,0,0,0,0,0,0,0,0,0,0,0,0,0,0,0,0,0,0,0,0,0,0,0,0,0,0,0,0,0,0,0,0,0,0,0,0,0,0,0,0,0,0,0,0,0,0,0,0,13.9,0.1967379,0,156.2027,0.04049032,0.001216081,11.36905,0.2461172,1,6.87395
15.001,10.56331,0.6840715,18.51825,33.65929,17.12292,-1.01796,90,89,0.09748317,1.849687,12.42742,0.0123797,108.2149,0.511015,-0.9605926,1.162285,-2.110044,11.55606,-32.78931,8.447784,20.78022,-57.78702,0,1,1116,39,23,0,16.47059,18.03922,0.4702682,13.49589,0.03,2.06228,305.7447,339.2,4.023947,5.561761,611,73,4255,0.97,10.7726,3.398438,15.9903,3.660156,0,0,0,0,0,0,0,0,0,0,0,0,12.94,0,0,0,0,0,0,0,0,0,68,46,0,0,0,0,0,0,0,0,0,0,0,0,0,0,0,0,0,0,0,0,0,0,0,0,0,0,0,0,0,0,0,0,0,0,0,0,0,0,0,0,0,0,0,0,0,0,0,0,0,0,0,0,0,0,0,13.9,0.1967379,0,156.2027,0.04049032,0.001216081,11.36905,0.2461172,1,6.87395
16.001,9.320568,0,18.51825,0.296936,23.00244,7.055496,90,89,-0.3868429,0,12.42742,0.0123797,0,0,-0.7551684,0.1514275,-0.4574619,9.271926,-36.61737,8.706764,25.3595,-50.74602,28.62745,1.01,1072,39,23,0,20,19.21569,0.5409055,13.09343,0.04,0,257.4397,339.2,0,5.56142,611,73,4255,0.97,3.553128,2.660156,3.079768,2.566406,0,0,0,0,0,0,0,0,0,0,0,0,12.94,0,0,0,0,0,0,0,0,0,68,46,0,0,0,0,0,0,0,0,0,0,0,0,0,0,0,0,0,0,0,0,0,0,0,0,0,0,0,0,0,0,0,0,0,0,0,0,0,0,0,0,0,0,0,0,0,0,0,0,0,0,0,0,0,0,0,13.9,0.1024,0,51.52036,0.04808777,0.001216081,9.572834,0.2756025,1,6.87395
17.002,9.320568,0,18.51825,8.324142,6.175583,-1.954071,90,89,-0.3868429,0,12.42742,0.0123797,0,0,0.3919757,0.1834664,-0.07195858,7.02591,-35.863,11.00426,22.63902,-44.67004,28.62745,1.01,1072,39,23,0,20,19.21569,0.5409055,13.09343,0.04,0,257.4397,339.1,0,5.56142,611,73,4255,0.97,3.553128,2.660156,3.079768,2.566406,0,0,0,0,0,0,0,0,0,0,0,0,12.94,0,0,0,0,0,0,0,0,0,68,46,0,0,0,0,0,0,0,0,0,0,0,0,0,0,0,0,0,0,0,0,0,0,0,0,0,0,0,0,0,0,0,0,0,0,0,0,0,0,0,0,0,0,0,0,0,0,0,0,0,0,0,0,0,0,0,13.9,0.1024,0,51.52036,0.04808777,0.001216081,9.572834,0.2756025,1,6.87395
18.002,8.699197,0.5555283,18.51899,5.577057,-9.199463,10.53934,90,89,-0.2304916,1.782413,12.42742,0.0131163,106.7119,0.4149907,-0.4120033,-0.0004417105,-0.2275752,-2.662684,-34.8282,5.44783,20.15896,-38.05754,16.07843,1,940.5,34,23,0,18.43137,20,0.5114245,11.37355,0.03,1.674759,238.482,339.1,3.968056,5.561331,611,73,4255,0.97,2.746952,2.332031,2.884568,2.453125,0,0,0,0,0,0,0,0,0,0,0,0,12.94,0,0,0,0,0,0,0,0,0,68,46,0,0,0,0,0,0,0,0,0,0,0,0,0,0,0,0,0,0,0,0,0,0,0,0,0,0,0,0,0,0,0,0,0,0,0,0,0,0,0,0,0,0,0,0,0,0,0,0,0,0,0,0,0,0,0,13,0.1794612,0,39.8308,0.05499913,0.001288438,8.867898,0.3110085,1,6.87395
19.002,8.699197,0.5555283,18.51899,19.81326,-17.1427,-12.6071,90,89,-0.2304916,1.782413,12.42742,0.0131163,106.7119,0.4149907,-0.8378364,-0.3896453,-0.3627407,-4.131294,-33.47697,3.374954,20.62072,-37.79053,16.07843,1,940.5,34,23,0,18.43137,20,0.5114245,11.37355,0.03,1.674759,238.482,339.1,3.968056,5.561331,611,73,4255,0.97,2.746952,2.332031,2.884568,2.453125,0,0,0,0,0,0,0,0,0,0,0,0,12.94,0,0,0,0,0,0,0,0,0,68,46,0,0,0,0,0,0,0,0,0,0,0,0,0,0,0,0,0,0,0,0,0,0,0,0,0,0,0,0,0,0,0,0,0,0,0,0,0,0,0,0,0,0,0,0,0,0,0,0,0,0,0,0,0,0,0,13,0.1794612,0,39.8308,0.05499913,0.001288438,8.867898,0.3110085,1,6.87395
20.002,8.077826,0.5407216,18.51985,7.278549,-20.86799,16.37541,90,89,-0.1435494,1.394597,12.42742,0.01397799,111.8575,0.4039297,-1.029482,0.1267699,-0.003446555,-6.833946,-33.24115,-1.187279,18.81914,-38.67468,61.96078,1.06,1170,34,23,0,35.29412,35.68628,0.9940567,15.24199,0.09,1.630121,223.048,339.1,4.159394,5.561245,611,73,4255,0.97,1.2566,0.7265625,1.258064,0.75,0,0,0,0,0,0,0,0,0,0,0,0,12.94,0,0,0,0,0,0,0,0,0,68,46,0,0,0,0,0,0,0,0,0,0,0,0,0,0,0,0,0,0,0,0,0,0,0,0,0,0,0,0,0,0,0,0,0,0,0,0,0,0,0,0,0,0,0,0,0,0,0,0,0,0,0,0,0,0,0,13,0.16655,0,18.2207,0.06266807,0.001373083,8.293987,0.3400941,1,6.87395
21.002,8.077826,0.5407216,18.51985,2.168793,10.47649,5.032043,90,89,-0.1435494,1.394597,12.42742,0.01397799,111.8575,0.4039297,-0.6031094,-0.2734638,0.3074861,1.718461,-28.0523,3.75222,17.09549,-45.59541,61.96078,1.06,1170,34,23,0,35.29412,35.68628,0.9940567,15.24199,0.09,1.630121,223.048,339.2,4.159394,5.561245,611,73,4255,0.97,1.2566,0.7265625,1.258064,0.75,0,0,0,0,0,0,0,0,0,0,0,0,12.94,0,0,0,0,0,0,0,0,0,68,46,0,0,0,0,0,0,0,0,0,0,0,0,0,0,0,0,0,0,0,0,0,0,0,0,0,0,0,0,0,0,0,0,0,0,0,0,0,0,0,0,0,0,0,0,0,0,0,0,0,0,0,0,0,0,0,13,0.16655,0,18.2207,0.06266807,0.001373083,8.293987,0.3400941,1,6.87395
22.002,11.18468,2.567971,18.52324,-14.99885,-0.2925262,-7.814178,90,89,0.3334008,5.712568,12.42742,0.01736464,383.6651,1.918325,-0.4390115,0.004734172,0.7605535,-0.298457,-32.09826,-0.8854141,19.07378,-42.50534,54.11765,1.12,1356.5,34,23,0,28.62745,26.66667,0.984753,18.67187,0.15,7.741698,243.2883,339.3,14.2665,5.561871,631,73,4255,0.97,5.400208,3.085938,3.09636,2.589844,0,0,0,0,0,0,0,0,0,0,0,0,12.96,0,0,0,0,0,0,0,0,0,76,46,0,0,0,0,0,0,0,0,0,0,0,0,0,0,0,0,0,0,0,0,0,0,0,0,0,0,0,0,0,0,0,0,0,0,0,0,0,0,0,0,0,0,0,0,0,0,0,0,0,0,0,0,0,0,0,14,0.24631,0,78.30302,0.07137474,0.00170576,9.046618,0.3786256,1,6.87395
23.003,11.18468,2.567971,18.52324,-14.37318,-23.30908,-16.136,90,89,0.3334008,5.712568,12.42742,0.01736464,383.6651,1.918325,1.355514,0.3284411,0.09410799,-5.411666,-29.24949,0.1735611,14.02691,-42.51558,54.11765,1.12,1356.5,34,23,0,28.62745,26.66667,0.984753,18.67187,0.15,7.741698,243.2883,339.4,14.2665,5.561871,631,73,4255,0.97,5.400208,3.085938,3.09636,2.589844,0,0,0,0,0,0,0,0,0,0,0,0,12.96,0,0,0,0,0,0,0,0,0,76,46,0,0,0,0,0,0,0,0,0,0,0,0,0,0,0,0,0,0,0,0,0,0,0,0,0,0,0,0,0,0,0,0,0,0,0,0,0,0,0,0,0,0,0,0,0,0,0,0,0,0,0,0,0,0,0,14,0.24631,0,78.30302,0.07137474,0.00170576,9.046618,0.3786256,1,6.87395
24.002,11.80605,1.366972,18.52557,-36.3018,-3.94931,-16.83656,90,89,0.4590568,3.349549,12.42742,0.0196958,193.4821,1.021155,0.7102755,1.227797,0.6459908,-9.36708,-23.81539,-3.644875,12.82505,-50.66068,0,1.01,1231.5,34,23,0,15.29412,15.68627,0.5176556,15.28642,0.04,4.12103,235.7655,339.5,7.194585,5.562025,631,73,4255,0.97,12.83245,3.507813,14.88595,3.636719,0,0,0,0,0,0,0,0,0,0,0,0,12.96,0,0,0,0,0,0,0,0,0,76,46,0,0,0,0,0,0,0,0,0,0,0,0,0,0,0,0,0,0,0,0,0,0,0,0,0,0,0,0,0,0,0,0,0,0,0,0,0,0,0,0,0,0,0,0,0,0,0,0,0,0,0,0,0,0,0,14,0.2236646,0,186.0705,0.08353979,0.001934755,8.766886,0.4087753,1,6.87395
25.002,11.80605,1.366972,18.52557,1.4272,-12.9505,-18.02615,90,89,0.4590568,3.349549,12.42742,0.0196958,193.4821,1.021155,-1.780694,0.1023071,0.3152131,-11.65775,-30.1766,-19.13585,12.9303,-46.81581,0,1.01,1231.5,34,23,0,15.29412,15.68627,0.5176556,15.28642,0.04,4.12103,235.7655,339.6,7.194585,5.562025,631,73,4255,0.97,12.83245,3.507813,14.88595,3.636719,0,0,0,0,0,0,0,0,0,0,0,0,12.96,0,0,0,0,0,0,0,0,0,76,46,0,0,0,0,0,0,0,0,0,0,0,0,0,0,0,0,0,0,0,0,0,0,0,0,0,0,0,0,0,0,0,0,0,0,0,0,0,0,0,0,0,0,0,0,0,0,0,0,0,0,0,0,0,0,0,14,0.2236646,0,186.0705,0.08353979,0.001934755,8.766886,0.4087753,1,6.87395
26.002,9.941939,0,18.52557,-19.1754,-11.59364,-13.21484,90,89,-0.1703194,0,12.42742,0.0196958,0,0,0.4254783,-0.08341788,-0.2865782,-7.859454,-33.07216,-26.14524,15.2702,-43.64825,27.45098,1.02,1162.5,38,23,0,20.78431,20.39216,0.5536809,14.57281,0.05,0,215.0873,339.6,0,5.561664,631,73,4255,0.97,2.815272,2.382813,2.775256,2.402344,0,0,0,0,0,0,0,0,0,0,0,0,12.96,0,0,0,0,0,0,0,0,0,76,46,0,0,0,0,0,0,0,0,0,0,0,0,0,0,0,0,0,0,0,0,0,0,0,0,0,0,0,0,0,0,0,0,0,0,0,0,0,0,0,0,0,0,0,0,0,0,0,0,0,0,0,0,0,0,0,13,0.09943409,0,40.82145,0.09157121,0.001934755,7.99797,0.4452435,1,6.87395
27.002,9.941939,0,18.52557,13.77556,-23.88344,-19.96405,90,89,-0.1703194,0,12.42742,0.0196958,0,0,-0.6909813,0.1700218,-0.386309,-8.485766,-32.38516,-32.16316,6.296707,-35.94962,27.45098,1.02,1162.5,38,23,0,20.78431,20.39216,0.5536809,14.57281,0.05,0,215.0873,339.7,0,5.561664,631,73,4255,0.97,2.815272,2.382813,2.775256,2.402344,0,0,0,0,0,0,0,0,0,0,0,0,12.96,0,0,0,0,0,0,0,0,0,76,46,0,0,0,0,0,0,0,0,0,0,0,0,0,0,0,0,0,0,0,0,0,0,0,0,0,0,0,0,0,0,0,0,0,0,0,0,0,0,0,0,0,0,0,0,0,0,0,0,0,0,0,0,0,0,0,13,0.09943409,0,40.82145,0.09157121,0.001934755,7.99797,0.4452435,1,6.87395
28.002,9.941939,0.7536517,18.5268,10.79489,-18.69185,6.798477,90,89,-0.230576,2.102835,12.42742,0.02093202,126.6734,0.5629928,1.822986,-0.2557923,-1.235849,-8.162029,-29.09242,-34.63868,-5.490978,-23.65579,3.137255,1.01,1081.5,38,23,0,15.29412,16.47059,0.665088,13.25192,0.04,2.272044,206.672,339.7,4.71032,5.561599,631,73,4255,0.97,3.456992,2.507813,4.377848,2.894531,0,0,0,0,0,0,0,0,0,0,0,0,12.96,0,0,0,0,0,0,0,0,0,76,46,0,0,0,0,0,0,0,0,0,0,0,0,0,0,0,0,0,0,0,0,0,0,0,0,0,0,0,0,0,0,0,0,0,0,0,0,0,0,0,0,0,0,0,0,0,0,0,0,0,0,0,0,0,0,0,13,0.08423703,0,50.12638,0.1012813,0.00205619,7.685052,0.4746884,1,6.87395
29.002,9.941939,0.7536517,18.5268,2.699142,-27.12302,-22.82994,90,89,-0.230576,2.102835,12.42742,0.02093202,126.6734,0.5629928,-0.274009,-0.2756234,-0.1961512,-12.25684,-31.73893,-33.2983,-10.00416,-16.29356,3.137255,1.01,1081.5,38,23,0,15.29412,16.47059,0.665088,13.25192,0.04,2.272044,206.672,339.8,4.71032,5.561599,631,73,4255,0.97,3.456992,2.507813,4.377848,2.894531,0,0,0,0,0,0,0,0,0,0,0,0,12.96,0,0,0,0,0,0,0,0,0,76,46,0,0,0,0,0,0,0,0,0,0,0,0,0,0,0,0,0,0,0,0,0,0,0,0,0,0,0,0,0,0,0,0,0,0,0,0,0,0,0,0,0,0,0,0,0,0,0,0,0,0,0,0,0,0,0,13,0.08423703,0,50.12638,0.1012813,0.00205619,7.685052,0.4746884,1,6.87395
30.004,9.941939,0.09614053,18.52693,-0.1303711,-9.552337,3.761276,90,89,4.718448E-16,0.2476425,12.42742,0.02105851,16.15925,0.07181888,0.1820022,0.0882761,0.9540401,-7.406256,-36.63966,-35.20262,-3.954853,-11.61243,56.47059,1.07,1171.5,38,23,0,29.01961,30.19608,0.7979752,15.20747,0.1,0.2898361,192.9303,339.8,0.6008778,5.561284,631,73,4255,0.97,1.238544,0.6953125,1.26392,0.7382813,0,0,0,0,0,0,0,0,0,0,0,0,12.96,0,0,0,0,0,0,0,0,0,76,46,0,0,0,0,0,0,0,0,0,0,0,0,0,0,0,0,0,0,0,0,0,0,0,0,0,0,0,0,0,0,0,0,0,0,0,0,0,0,0,0,0,0,0,0,0,0,0,0,0,0,0,0,0,0,0,13,0.006014597,0,17.95889,0.1091509,0.002068616,7.174068,0.5051959,1,6.87395
31.003,9.941939,0.09614053,18.52693,2.794312,-0.1646881,-1.536285,90,89,4.718448E-16,0.2476425,12.42742,0.02105851,16.15925,0.07181888,-0.2150586,0.800552,-0.7308615,-0.5567964,-31.94146,-29.29496,2.214222,-14.63618,56.47059,1.07,1171.5,38,23,0,29.01961,30.19608,0.7979752,15.20747,0.1,0.2898361,192.9303,339.9,0.6008778,5.561284,631,73,4255,0.97,1.238544,0.6953125,1.26392,0.7382813,0,0,0,0,0,0,0,0,0,0,0,0,12.96,0,0,0,0,0,0,0,0,0,76,46,0,0,0,0,0,0,0,0,0,0,0,0,0,0,0,0,0,0,0,0,0,0,0,0,0,0,0,0,0,0,0,0,0,0,0,0,0,0,0,0,0,0,0,0,0,0,0,0,0,0,0,0,0,0,0,13,0.006014597,0,17.95889,0.1091509,0.002068616,7.174068,0.5051959,1,6.87395
32.002,12.42742,2.951982,18.53098,9.092575,-0.949768,9.839493,90,89,0.3039443,5.862381,12.42742,0.02510721,396.9341,2.205189,0.3408881,0.1406662,-0.1127541,1.681594,-29.40279,-24.80827,6.704054,-20.36284,77.25491,1.23,1519.5,38,23,0,37.64706,39.60784,1.256633,22.67444,0.26,8.899382,210.4448,339.9,14.7599,5.562043,631,73,4255,0.97,1.367376,0.9921875,1.369816,1,0,0,0,0,0,0,0,0,0,0,0,0,12.96,0,0,0,0,0,0,0,0,0,76,46,0,0,0,0,0,0,0,0,0,0,0,0,0,0,0,0,0,0,0,0,0,0,0,0,0,0,0,0,0,0,0,0,0,0,0,0,0,0,0,0,0,0,0,0,0,0,0,0,0,0,0,0,0,0,0,13,0.0004065667,0,19.82695,0.1193054,0.002466327,7.82534,0.5360375,1,6.87395
33.003,12.42742,2.951982,18.53098,19.39627,-4.363571,1.475769,90,89,0.3039443,5.862381,12.42742,0.02510721,396.9341,2.205189,0.3593144,-0.5628136,-0.1762661,2.133282,-30.66282,-22.45698,8.424862,-22.02394,77.25491,1.23,1519.5,38,23,0,37.64706,39.60784,1.256633,22.67444,0.26,8.899382,210.4448,340,14.7599,5.562043,631,73,4255,0.97,1.367376,0.9921875,1.369816,1,0,0,0,0,0,0,0,0,0,0,0,0,12.96,0,0,0,0,0,0,0,0,0,76,46,0,0,0,0,0,0,0,0,0,0,0,0,0,0,0,0,0,0,0,0,0,0,0,0,0,0,0,0,0,0,0,0,0,0,0,0,0,0,0,0,0,0,0,0,0,0,0,0,0,0,0,0,0,0,0,13,0.0004065667,0,19.82695,0.1193054,0.002466327,7.82534,0.5360375,1,6.87395
34.003,16.77702,5.424582,18.53875,-16.62004,0.8142395,-5.61853,90,89,0.8171834,13.25978,16.77702,0.03287563,540.3027,4.05227,-0.08316949,-0.5553194,0.251379,-0.3303132,-32.95132,-26.5131,7.626537,-18.40237,61.17647,1.26,1234.5,42,23,0,18.03922,14.90196,1.301364,18.87089,0.29,16.35356,246.2362,340,20.09103,5.563736,631,73,4255,0.97,2.76208,2.351563,2.332152,2.144531,0,0,0,0,0,0,0,0,0,0,0,0,12.96,0,0,0,0,0,0,0,0,0,76,46,0,0,0,0,0,0,0,0,0,0,0,0,0,0,0,0,0,0,0,0,0,0,0,0,0,0,0,0,0,0,0,0,0,0,0,0,0,0,0,0,0,0,0,0,0,0,0,0,0,0,0,0,0,0,0,13.6,0.1499546,0,40.05016,0.1335126,0.003229433,9.156235,0.5731169,1,6.87395
35.003,16.77702,5.424582,18.53875,0.6777954,-14.68849,13.97588,90,89,0.8171834,13.25978,16.77702,0.03287563,540.3027,4.05227,0.4825136,0.1200697,0.9994158,0.8747298,-35.68285,-32.62446,1.828568,-9.512177,61.17647,1.26,1234.5,42,23,0,18.03922,14.90196,1.301364,18.87089,0.29,16.35356,246.2362,340,20.09103,5.563736,631,73,4255,0.97,2.76208,2.351563,2.332152,2.144531,0,0,0,0,0,0,0,0,0,0,0,0,12.96,0,0,0,0,0,0,0,0,0,76,46,0,0,0,0,0,0,0,0,0,0,0,0,0,0,0,0,0,0,0,0,0,0,0,0,0,0,0,0,0,0,0,0,0,0,0,0,0,0,0,0,0,0,0,0,0,0,0,0,0,0,0,0,0,0,0,13.6,0.1499546,0,40.05016,0.1335126,0.003229433,9.156235,0.5731169,1,6.87395
36.003,18.01976,1.466487,18.54115,37.621,4.397293,17.21324,90,89,0.6399965,4.004765,18.01976,0.03527459,135.9925,1.095495,0.03673631,-1.300093,-1.276869,3.416785,-31.1653,-27.85267,5.333818,-17.1563,0,1.02,1105,42,23,0,15.29412,14.90196,0.5538722,13.50037,0.05,4.421039,233.3506,340,5.056849,5.563664,631,73,4255,0.97,9.519904,3.386719,10.15772,3.527344,0,0,0,0,0,0,0,0,0,0,0,0,12.96,0,0,0,0,0,0,0,0,0,76,46,0,0,0,0,0,0,0,0,0,0,0,0,0,0,0,0,0,0,0,0,0,0,0,0,0,0,0,0,0,0,0,0,0,0,0,0,0,0,0,0,0,0,0,0,0,0,0,0,0,0,0,0,0,0,0,13.6,0.2057744,0,138.0386,0.1511656,0.003465088,8.677088,0.6036008,1,6.87395
37.003,18.01976,1.466487,18.54115,-19.17807,11.67693,-16.88022,90,89,0.6399965,4.004765,18.01976,0.03527459,135.9925,1.095495,-1.026896,0.5959561,0.4325312,2.749503,-26.87878,-25.45786,0.7164154,-15.87837,0,1.02,1105,42,23,0,15.29412,14.90196,0.5538722,13.50037,0.05,4.421039,233.3506,340,5.056849,5.563664,631,73,4255,0.97,9.519904,3.386719,10.15772,3.527344,0,0,0,0,0,0,0,0,0,0,0,0,12.96,0,0,0,0,0,0,0,0,0,76,46,0,0,0,0,0,0,0,0,0,0,0,0,0,0,0,0,0,0,0,0,0,0,0,0,0,0,0,0,0,0,0,0,0,0,0,0,0,0,0,0,0,0,0,0,0,0,0,0,0,0,0,0,0,0,0,13.6,0.2057744,0,138.0386,0.1511656,0.003465088,8.677088,0.6036008,1,6.87395
38.003,12.42742,0,18.54115,0.3851929,-2.87117,-6.360428,90,89,-0.546349,0,18.01976,0.03527459,0,0,0.5837962,0.2841403,0.8373274,0.9503525,-38.6603,-21.5939,8.39216,-21.73367,21.96078,1,919.5,42,23,0,15.29412,14.90196,0.511497,11.01374,0.03,0,218.442,339.9,0,5.5632,631,73,4255,0.97,2.76208,2.347656,2.87432,2.457031,0,0,0,0,0,0,0,0,0,0,0,0,12.96,0,0,0,0,0,0,0,0,0,76,46,0,0,0,0,0,0,0,0,0,0,0,0,0,0,0,0,0,0,0,0,0,0,0,0,0,0,0,0,0,0,0,0,0,0,0,0,0,0,0,0,0,0,0,0,0,0,0,0,0,0,0,0,0,0,0,13.3,0.08678317,0,40.05016,0.1614826,0.003465088,8.122715,0.6362191,1,6.87395
39.003,0.6213712,0.4190882,18.54176,0.6999207,-1.680374,-2.322998,90,89,-2.048912,1.404374,18.01976,0.03588484,1127.042,0.3130672,-0.3198503,-0.05658536,0.1274757,-2.415207,-39.24235,-24.92155,5.902552,-20.57437,45.4902,1,900.5,42,23,0,15.29412,14.90196,0.5919876,10.78616,0.03,1.263431,221.4902,339.9,41.90879,5.56336,631,73,4255,0.97,2.675216,2.304688,2.627392,2.335938,0,0,0,0,0,0,0,0,0,0,0,0,12.96,0,0,0,0,0,0,0,0,0,76,46,0,0,0,0,0,0,0,0,0,0,0,0,0,0,0,0,0,0,0,0,0,0,0,0,0,0,0,0,0,0,0,0,0,0,0,0,0,0,0,0,0,0,0,0,0,0,0,0,0,0,0,0,0,0,0,13.3,-0.1752981,0,38.79063,0.1620154,0.003525033,8.236063,0.6660112,2,6.873953
40.003,0.6213712,0.4190882,18.54176,1.934799,-0.3267059,-5.131363,90,89,-2.048912,1.404374,18.01976,0.03588484,1127.042,0.3130672,-0.2673341,-0.01997449,-0.1521041,-1.919973,-39.12544,-24.54773,6.649036,-20.44844,45.4902,1,900.5,42,23,0,15.29412,14.90196,0.5919876,10.78616,0.03,1.263431,221.4902,339.8,41.90879,5.56336,631,73,4255,0.97,2.675216,2.304688,2.627392,2.335938,0,0,0,0,0,0,0,0,0,0,0,0,12.96,0,0,0,0,0,0,0,0,0,76,46,0,0,0,0,0,0,0,0,0,0,0,0,0,0,0,0,0,0,0,0,0,0,0,0,0,0,0,0,0,0,0,0,0,0,0,0,0,0,0,0,0,0,0,0,0,0,0,0,0,0,0,0,0,0,0,13.3,-0.1752981,0,38.79063,0.1620154,0.003525033,8.236063,0.6660112,2,6.873953
41.003,0.6213712,0.4190882,18.54176,0.5715027,0.1585541,-0.8479614,90,89,-2.048912,1.404374,18.01976,0.03588484,1127.042,0.3130672,0.02691581,-0.03269532,-0.1330359,-2.236652,-38.74599,-24.74062,6.682226,-20.10683,45.4902,1,900.5,42,23,0,15.29412,14.90196,0.5919876,10.78616,0.03,1.263431,221.4902,339.8,41.90879,5.56336,631,73,4255,0.97,2.675216,2.304688,2.627392,2.335938,0,0,0,0,0,0,0,0,0,0,0,0,12.96,0,0,0,0,0,0,0,0,0,76,46,0,0,0,0,0,0,0,0,0,0,0,0,0,0,0,0,0,0,0,0,0,0,0,0,0,0,0,0,0,0,0,0,0,0,0,0,0,0,0,0,0,0,0,0,0,0,0,0,0,0,0,0,0,0,0,13.3,-0.1752981,0,38.79063,0.1620154,0.003525033,8.236063,0.6660112,2,6.873953
42.003,0.6213712,0.4190882,18.54176,0.6214752,0.6967315,-0.1942139,90,89,-2.048912,1.404374,18.01976,0.03588484,1127.042,0.3130672,-0.05313006,0.01014914,0.09370807,-2.054254,-39.26117,-25.11528,6.86035,-20.60962,45.4902,1,900.5,42,23,0,15.29412,14.90196,0.5919876,10.78616,0.03,1.263431,221.4902,339.8,41.90879,5.56336,631,73,4255,0.97,2.675216,2.304688,2.627392,2.335938,0,0,0,0,0,0,0,0,0,0,0,0,12.96,0,0,0,0,0,0,0,0,0,76,46,0,0,0,0,0,0,0,0,0,0,0,0,0,0,0,0,0,0,0,0,0,0,0,0,0,0,0,0,0,0,0,0,0,0,0,0,0,0,0,0,0,0,0,0,0,0,0,0,0,0,0,0,0,0,0,13.3,-0.1752981,0,38.79063,0.1620154,0.003525033,8.236063,0.6660112,2,6.873953
43.003,0,1.448627,18.54371,0.8017426,2.714951,-2.63887,90,91,-1.452804,4.49961,18.01976,0.03784067,0,1.082153,-0.4619409,0.04960868,0.3008897,-2.446771,-39.09751,-25.8465,6.023497,-20.39453,32.94118,1.01,971.5,38,23,0,15.29412,14.90196,1.0087,11.75296,0.04,4.367197,233.5621,339.7,0,5.563947,651,73,4255,0.97,3.489688,2.621094,3.587288,2.726563,0,0,0,0,0,0,0,0,0,0,0,0,13.3,0,0,0,0,0,0,0,0,0,77,45,0,0,0,0,0,0,0,0,0,0,0,0,0,0,0,0,0,0,0,0,0,0,0,0,0,0,0,0,0,0,0,0,0,0,0,0,0,0,0,0,0,0,0,0,0,0,0,0,0,0,0,0,0,0,0,13.3,-0.2704577,0,50.60048,0.1620154,0.003717158,8.684954,0.7220256,2,10.2348
44.003,0,1.448627,18.54371,0.7415466,2.155487,1.154205,90,91,-1.452804,4.49961,18.01976,0.03784067,0,1.082153,0.01427183,-0.05715042,-0.05386569,-2.198724,-40.42791,-27.90497,5.809883,-18.88989,32.94118,1.01,971.5,38,23,0,15.29412,14.90196,1.0087,11.75296,0.04,4.367197,233.5621,339.7,0,5.563947,651,73,4255,0.97,3.489688,2.621094,3.587288,2.726563,0,0,0,0,0,0,0,0,0,0,0,0,13.3,0,0,0,0,0,0,0,0,0,77,45,0,0,0,0,0,0,0,0,0,0,0,0,0,0,0,0,0,0,0,0,0,0,0,0,0,0,0,0,0,0,0,0,0,0,0,0,0,0,0,0,0,0,0,0,0,0,0,0,0,0,0,0,0,0,0,13.3,-0.2704577,0,50.60048,0.1620154,0.003717158,8.684954,0.7220256,2,10.2348
45.004,0,0.6498438,18.54534,-0.5928192,-4.533157,7.944962,90,91,-0.07699788,2.639254,18.01976,0.0394725,0,0.4854462,0.3005084,0.04322933,-1.519751,-1.974307,-39.51719,-25.32341,6.34086,-19.89375,34.90196,0.94,743,38,23,0,15.29412,14.90196,0.5718555,8.4732,-0.03,1.959093,243.6342,339.7,0,5.564436,651,73,4255,0.97,3.131984,2.5,3.117344,2.5625,0,0,0,0,0,0,0,0,0,0,0,0,13.3,0,0,0,0,0,0,0,0,0,77,45,0,0,0,0,0,0,0,0,0,0,0,0,0,0,0,0,0,0,0,0,0,0,0,0,0,0,0,0,0,0,0,0,0,0,0,0,0,0,0,0,0,0,0,0,0,0,0,0,0,0,0,0,0,0,0,13.3,-0.2825091,0,45.41377,0.1620154,0.003877456,9.059481,0.7521936,2,12.04493
46.003,0,0.6498438,18.54534,0.9836884,-0.02178955,-0.7526245,90,91,-0.07699788,2.639254,18.01976,0.0394725,0,0.4854462,0.0253863,-0.006185051,0.3155026,-1.453947,-40.92791,-24.81968,8.302114,-20.60031,34.90196,0.94,743,38,23,0,15.29412,14.90196,0.5718555,8.4732,-0.03,1.959093,243.6342,339.6,0,5.564436,651,73,4255,0.97,3.131984,2.5,3.117344,2.5625,0,0,0,0,0,0,0,0,0,0,0,0,13.3,0,0,0,0,0,0,0,0,0,77,45,0,0,0,0,0,0,0,0,0,0,0,0,0,0,0,0,0,0,0,0,0,0,0,0,0,0,0,0,0,0,0,0,0,0,0,0,0,0,0,0,0,0,0,0,0,0,0,0,0,0,0,0,0,0,0,13.3,-0.2825091,0,45.41377,0.1620154,0.003877456,9.059481,0.7521936,2,12.04493
47.004,0,0.7171285,18.54629,-2.47673,0.9325256,0.1305695,90,91,5.273559E-16,2.873843,18.01976,0.04041864,0,0.5357091,-0.134009,0.06927586,0.06223905,-1.125256,-41.41035,-26.26972,7.910589,-20.40338,34.5098,0.93,753,38,23,0,15.29412,14.90196,0.7787849,8.495887,-0.04,2.161937,249.474,339.6,0,5.56472,651,73,4255,0.97,3.09392,2.484375,3.09392,2.542969,0,0,0,0,0,0,0,0,0,0,0,0,13.3,0,0,0,0,0,0,0,0,0,77,45,0,0,0,0,0,0,0,0,0,0,0,0,0,0,0,0,0,0,0,0,0,0,0,0,0,0,0,0,0,0,0,0,0,0,0,0,0,0,0,0,0,0,0,0,0,0,0,0,0,0,0,0,0,0,0,13.3,-0.2363938,0,44.86184,0.1620154,0.003970396,9.276631,0.7871683,2,14.14337
48.003,0,0.7171285,18.54629,28.73444,5.488647,38.08733,90,91,5.273559E-16,2.873843,18.01976,0.04041864,0,0.5357091,0.4413674,0.6382501,-0.4844923,2.547359,-40.69197,-25.39669,8.500355,-20.276,34.5098,0.93,753,38,23,0,15.29412,14.90196,0.7787849,8.495887,-0.04,2.161937,249.474,339.6,0,5.56472,651,73,4255,0.97,3.09392,2.484375,3.09392,2.542969,0,0,0,0,0,0,0,0,0,0,0,0,13.3,0,0,0,0,0,0,0,0,0,77,45,0,0,0,0,0,0,0,0,0,0,0,0,0,0,0,0,0,0,0,0,0,0,0,0,0,0,0,0,0,0,0,0,0,0,0,0,0,0,0,0,0,0,0,0,0,0,0,0,0,0,0,0,0,0,0,13.3,-0.2363938,0,44.86184,0.1620154,0.003970396,9.276631,0.7871683,2,14.14337
49.004,0,0.7060406,18.5474,25.41385,18.91685,21.17125,90,91,5.273559E-16,2.848322,18.01976,0.04152564,0,0.5274263,0.522947,0.3410969,-0.02933483,2.675561,-45.76159,-24.67422,12.91725,-26.11516,33.72549,0.93,748,38,23,0,15.29412,14.90196,0.7651585,8.439473,-0.04,2.12851,256.3066,339.6,0,5.565053,651,73,4255,0.97,2.372656,2.128906,2.764032,2.367188,0,0,0,0,0,0,0,0,0,0,0,0,13.3,0,0,0,0,0,0,0,0,0,77,45,0,0,0,0,0,0,0,0,0,0,0,0,0,0,0,0,0,0,0,0,0,0,0,0,0,0,0,0,0,0,0,0,0,0,0,0,0,0,0,0,0,0,0,0,0,0,0,0,0,0,0,0,0,0,0,13.3,-0.2363938,0,34.40351,0.1620154,0.004079139,9.530703,0.817247,2,15.9483
50.004,0,0.7060406,18.5474,20.11157,52.37302,43.59216,90,91,5.273559E-16,2.848322,18.01976,0.04152564,0,0.5274263,2.088016,-0.4482899,-0.967445,18.59075,-41.4978,-23.60814,18.21456,-39.02904,33.72549,0.93,748,38,23,0,15.29412,14.90196,0.7651585,8.439473,-0.04,2.12851,256.3066,339.6,0,5.565053,651,73,4255,0.97,2.372656,2.128906,2.764032,2.367188,0,0,0,0,0,0,0,0,0,0,0,0,13.3,0,0,0,0,0,0,0,0,0,77,45,0,0,0,0,0,0,0,0,0,0,0,0,0,0,0,0,0,0,0,0,0,0,0,0,0,0,0,0,0,0,0,0,0,0,0,0,0,0,0,0,0,0,0,0,0,0,0,0,0,0,0,0,0,0,0,13.3,-0.2363938,0,34.40351,0.1620154,0.004079139,9.530703,0.817247,2,15.9483
51.004,0.6213712,2.020627,18.55017,-26.21124,-2.484695,25.58009,90,91,0.07728213,3.832454,18.01976,0.04429346,5434.014,1.509448,-1.290429,1.115431,-1.702044,10.59014,-34.32256,-13.6477,16.95874,-43.2404,94.5098,1.17,1591,40,23,0,40,40,2.255721,22.58327,0.2,6.091611,272.5506,339.6,202.0625,5.56586,651,73,4255,0.97,1.750456,1.617188,1.774368,1.613281,0,0,0,0,0,0,0,0,0,0,0,0,13.3,0,0,0,0,0,0,0,0,0,77,45,0,0,0,0,0,0,0,0,0,0,0,0,0,0,0,0,0,0,0,0,0,0,0,0,0,0,0,0,0,0,0,0,0,0,0,0,0,0,0,0,0,0,0,0,0,0,0,0,0,0,0,0,0,0,0,13.4,-0.2209374,0,25.38161,0.1625147,0.004351028,10.13473,0.8539656,2,18.1512
52.004,0.6213712,2.020627,18.55017,-29.3314,2.895706,3.951034,90,91,0.07728213,3.832454,18.01976,0.04429346,5434.014,1.509448,-1.858292,-0.3096843,1.297445,5.515365,-43.5887,-18.33077,29.92372,-38.9471,94.5098,1.17,1591,40,23,0,40,40,2.255721,22.58327,0.2,6.091611,272.5506,339.7,202.0625,5.56586,651,73,4255,0.97,1.750456,1.617188,1.774368,1.613281,0,0,0,0,0,0,0,0,0,0,0,0,13.3,0,0,0,0,0,0,0,0,0,77,45,0,0,0,0,0,0,0,0,0,0,0,0,0,0,0,0,0,0,0,0,0,0,0,0,0,0,0,0,0,0,0,0,0,0,0,0,0,0,0,0,0,0,0,0,0,0,0,0,0,0,0,0,0,0,0,13.4,-0.2209374,0,25.38161,0.1625147,0.004351028,10.13473,0.8539656,2,18.1512
53.004,10.56331,8.04417,18.56331,9.868073,-7.632401,-13.13004,90,91,1.077602,12.65922,18.01976,0.05744045,1272.527,6.009155,1.19188,-0.1106288,0.4618517,6.621387,-43.36345,-15.22661,31.37,-39.24722,56.07843,1.38,1917.5,40,23,0,45.09804,45.88235,1.516268,31.89794,0.41,24.25087,332.0159,339.9,47.31861,5.569334,651,73,4255,0.97,1.235128,0.6914063,1.226832,0.6679688,0,0,0,0,0,0,0,0,0,0,0,0,13.3,0,0,0,0,0,0,0,0,0,77,45,0,0,0,0,0,0,0,0,0,0,0,0,0,0,0,0,0,0,0,0,0,0,0,0,0,0,0,0,0,0,0,0,0,0,0,0,0,0,0,0,0,0,0,0,0,0,0,0,0,0,0,0,0,0,0,13.4,-0.08166241,0,17.90936,0.1730051,0.00564248,12.34593,0.8855195,2,20.04448
54.004,16.77702,7.817834,18.57436,-16.45364,1.982574,6.855515,90,91,1.73472,10.97514,18.01976,0.06849075,778.6769,5.840077,1.474035,-1.581193,2.230347,8.636039,-33.13752,8.040245,28.20308,-52.89763,89.41177,2.15,2149.5,40,23,0,54.5098,55.68628,2.060616,55.70884,1.18,23.56853,365.8908,339.9,28.95492,5.572011,651,73,4255,0.97,1.534272,1.421875,1.515728,1.300781,0,0,0,0,0,0,0,0,0,0,0,0,13.3,0,0,0,0,0,0,0,0,0,77,45,0,0,0,0,0,0,0,0,0,0,0,0,0,0,0,0,0,0,0,0,0,0,0,0,0,0,0,0,0,0,0,0,0,0,0,0,0,0,0,0,0,0,0,0,0,0,0,0,0,0,0,0,0,0,0,13.4,-0.0374302,0,22.24694,0.187189,0.006727972,13.60556,0.9160219,2,20.04448
55.004,16.77702,7.817834,18.57436,25.19421,6.737259,-24.31918,90,91,1.73472,10.97514,18.01976,0.06849075,778.6769,5.840077,1.019002,1.103474,-0.6044743,10.76809,-22.28087,-15.33016,32.83287,-48.74422,89.41177,2.15,2149.5,40,23,0,54.5098,55.68628,2.060616,55.70884,1.18,23.56853,365.8908,340,28.95492,5.572011,651,73,4255,0.97,1.534272,1.421875,1.515728,1.300781,0,0,0,0,0,0,0,0,0,0,0,0,13.3,0,0,0,0,0,0,0,0,0,77,45,0,0,0,0,0,0,0,0,0,0,0,0,0,0,0,0,0,0,0,0,0,0,0,0,0,0,0,0,0,0,0,0,0,0,0,0,0,0,0,0,0,0,0,0,0,0,0,0,0,0,0,0,0,0,0,13.4,-0.0374302,0,22.24694,0.187189,0.006727972,13.60556,0.9160219,2,20.04448
56.005,27.34033,16.20973,18.59649,2.155731,-1.504425,8.660706,90,91,2.026699,24.99459,27.34033,0.09061454,990.7357,12.10899,-0.891394,-0.3145598,-1.387109,11.65052,-22.22882,-15.23566,28.25406,-51.1265,99.60784,2.32,1957,40,23,0,74.5098,74.5098,2.390483,54.73019,1.35,48.8677,432.4867,340.3,36.84027,5.577643,651,73,4255,0.97,1.213168,0.7070313,1.223416,0.6875,0,0,0,0,0,0,0,0,0,0,0,0,13.3,0,0,0,0,0,0,0,0,0,77,45,0,0,0,0,0,0,0,0,0,0,0,0,0,0,0,0,0,0,0,0,0,0,0,0,0,0,0,0,0,0,0,0,0,0,0,0,0,0,0,0,0,0,0,0,0,0,0,0,0,0,0,0,0,0,0,13.4,0.1956781,0,17.59094,0.2095198,0.008901232,16.08192,0.9454331,2,20.04448
57.004,27.34033,16.20973,18.59649,-11.19258,-5.030304,5.219452,90,91,2.026699,24.99459,27.34033,0.09061454,990.7357,12.10899,-0.1844676,0.1001917,1.38784,15.62628,-26.67258,-11.87132,30.94351,-52.13469,99.60784,2.32,1957,40,23,0,74.5098,74.5098,2.390483,54.73019,1.35,48.8677,432.4867,340.5,36.84027,5.577643,651,73,4255,0.97,1.213168,0.7070313,1.223416,0.6875,0,0,0,0,0,0,0,0,0,0,0,0,13.3,0,0,0,0,0,0,0,0,0,77,45,0,0,0,0,0,0,0,0,0,0,0,0,0,0,0,0,0,0,0,0,0,0,0,0,0,0,0,0,0,0,0,0,0,0,0,0,0,0,0,0,0,0,0,0,0,0,0,0,0,0,0,0,0,0,0,13.4,0.1956781,0,17.59094,0.2095198,0.008901232,16.08192,0.9454331,2,20.04448
58.004,37.90364,26.48965,18.63321,10.15205,11.14386,-7.586868,90,91,2.564447,30.26124,37.90364,0.1273382,1167.834,19.7883,-0.7582805,-0.3043029,3.094392,15.78392,-28.09055,-12.3466,32.3461,-52.08662,99.60784,2.43,2641.5,42,23,0,40.78431,14.90196,3.851534,77.37579,1.46,79.85872,528.4427,340.6,43.42563,5.587241,651,73,4255,0.97,12.75242,3.621094,10.8009,3.535156,0,0,0,0,0,0,0,0,0,0,0,0,13.3,0,0,0,0,0,0,0,0,0,77,45,0,0,0,0,0,0,0,0,0,0,0,0,0,0,0,0,0,0,0,0,0,0,0,0,0,0,0,0,0,0,0,0,0,0,0,0,0,0,0,0,0,0,0,0,0,0,0,0,0,0,0,0,0,0,0,14,0.584729,0,184.91,0.2409687,0.01250866,19.65002,0.9827353,2,20.04448
59.004,37.90364,26.48965,18.63321,29.56177,20.98094,-3.811386,90,91,2.564447,30.26124,37.90364,0.1273382,1167.834,19.7883,-0.689876,-1.10218,-0.01847808,13.41312,-23.03486,-13.64711,29.00274,-52.23116,99.60784,2.43,2641.5,42,23,0,40.78431,14.90196,3.851534,77.37579,1.46,79.85872,528.4427,340.7,43.42563,5.587241,651,73,4255,0.97,12.75242,3.621094,10.8009,3.535156,0,0,0,0,0,0,0,0,0,0,0,0,13.3,0,0,0,0,0,0,0,0,0,77,45,0,0,0,0,0,0,0,0,0,0,0,0,0,0,0,0,0,0,0,0,0,0,0,0,0,0,0,0,0,0,0,0,0,0,0,0,0,0,0,0,0,0,0,0,0,0,0,0,0,0,0,0,0,0,0,14,0.584729,0,184.91,0.2409687,0.01250866,19.65002,0.9827353,2,20.04448
60.005,42.25324,2.930013,18.63787,-1.448151,-23.32059,-11.95433,90,91,1.728605,4.931174,42.25324,0.1320017,115.8765,2.188778,-0.8760164,0.3332195,-0.376472,1.686115,-25.24506,-7.763355,30.38822,-51.14178,0,1.13,1793,42,23,0,15.29412,14.90196,0.3176378,24.26845,0.16,8.833151,469.4216,340.8,4.30884,5.586826,651,73,4255,0.97,15.9903,3.917969,15.9903,3.9375,0,0,0,0,0,0,0,0,0,0,0,0,13.3,0,0,0,0,0,0,0,0,0,77,45,0,0,0,0,0,0,0,0,0,0,0,0,0,0,0,0,0,0,0,0,0,0,0,0,0,0,0,0,0,0,0,0,0,0,0,0,0,0,0,0,0,0,0,0,0,0,0,0,0,0,0,0,0,0,0,14,0.9511815,0,231.8593,0.2812008,0.01296677,17.45533,1.012065,2,20.04448
61.005,42.25324,2.930013,18.63787,26.45261,38.15892,22.73279,90,91,1.728605,4.931174,42.25324,0.1320017,115.8765,2.188778,-0.2505966,0.3423313,-3.576563,-0.5667392,-25.08368,-5.357025,16.2308,-49.26556,0,1.13,1793,42,23,0,15.29412,14.90196,0.3176378,24.26845,0.16,8.833151,469.4216,341,4.30884,5.586826,651,73,4255,0.97,15.9903,3.917969,15.9903,3.9375,0,0,0,0,0,0,0,0,0,0,0,0,13.3,0,0,0,0,0,0,0,0,0,77,45,0,0,0,0,0,0,0,0,0,0,0,0,0,0,0,0,0,0,0,0,0,0,0,0,0,0,0,0,0,0,0,0,0,0,0,0,0,0,0,0,0,0,0,0,0,0,0,0,0,0,0,0,0,0,0,14,0.9511815,0,231.8593,0.2812008,0.01296677,17.45533,1.012065,2,20.04448
62.005,42.25324,2.930013,18.63787,5.354355,20.67682,11.80511,90,91,1.728605,4.931174,42.25324,0.1320017,115.8765,2.188778,1.823833,-0.3246472,1.33011,6.787252,-47.05104,-14.81846,37.37405,-39.10289,0,1.13,1793,42,23,0,15.29412,14.90196,0.3176378,24.26845,0.16,8.833151,469.4216,341.1,4.30884,5.586826,651,73,4255,0.97,15.9903,3.917969,15.9903,3.9375,0,0,0,0,0,0,0,0,0,0,0,0,13.3,0,0,0,0,0,0,0,0,0,77,45,0,0,0,0,0,0,0,0,0,0,0,0,0,0,0,0,0,0,0,0,0,0,0,0,0,0,0,0,0,0,0,0,0,0,0,0,0,0,0,0,0,0,0,0,0,0,0,0,0,0,0,0,0,0,0,14,0.9511815,0,231.8593,0.2812008,0.01296677,17.45533,1.012065,2,20.04448
63.005,37.28227,0,18.63787,4.278931,-23.90228,-40.51671,90,91,-0.1387753,0,42.25324,0.1320017,0,0,-1.3283,0.7498966,-1.111354,1.816177,-36.02782,-23.86515,25.11258,-39.9364,0,1.14,1532.5,42,23,0,15.29412,14.90196,1.282797,20.92612,0.17,0,422.6595,341.2,0,5.585425,671,73,4255,0.97,1.856352,1.667969,1.99104,1.785156,0,0,0,0,0,0,0,0,0,0,0,0,14.64,0,0,0,0,0,0,0,0,0,105,43,0,0,0,0,0,0,0,0,0,0,0,0,0,0,0,0,0,0,0,0,0,0,0,0,0,0,0,0,0,0,0,0,0,0,0,0,0,0,0,0,0,0,0,0,0,0,0,0,0,0,0,0,0,0,0,13,0.8475347,0,26.9171,0.3123122,0.01296677,15.7165,1.05206,2,20.04448
64.005,34.79679,0,18.63787,-5.705734,1.137817,9.7332,90,91,-0.8335224,0,42.25324,0.1320017,0,0,-1.146242,0.3380057,0.01009486,-5.459711,-34.51497,-31.30725,11.52529,-33.51479,88.62745,1.22,1206,42,23,0,42.7451,44.70588,0.9152201,17.62343,0.25,0,378.6855,341.1,0,5.583794,671,73,4255,0.97,1.15656,0.5,1.156072,0.4921875,0,0,0,0,0,0,0,0,0,0,0,0,14.64,0,0,0,0,0,0,0,0,0,105,43,0,0,0,0,0,0,0,0,0,0,0,0,0,0,0,0,0,0,0,0,0,0,0,0,0,0,0,0,0,0,0,0,0,0,0,0,0,0,0,0,0,0,0,0,0,0,0,0,0,0,0,0,0,0,0,13,0.7998766,0,16.77012,0.3485788,0.01296677,14.08133,1.082239,2,20.04448
65.005,34.79679,0,18.63787,18.67418,-1.106949,-6.243225,90,91,-0.8335224,0,42.25324,0.1320017,0,0,-0.02886777,0.09972893,-0.5480791,-1.96467,-32.49196,-29.11507,17.43178,-36.31323,88.62745,1.22,1206,42,23,0,42.7451,44.70588,0.9152201,17.62343,0.25,0,378.6855,341.2,0,5.583794,671,73,4255,0.97,1.15656,0.5,1.156072,0.4921875,0,0,0,0,0,0,0,0,0,0,0,0,14.64,0,0,0,0,0,0,0,0,0,105,43,0,0,0,0,0,0,0,0,0,0,0,0,0,0,0,0,0,0,0,0,0,0,0,0,0,0,0,0,0,0,0,0,0,0,0,0,0,0,0,0,0,0,0,0,0,0,0,0,0,0,0,0,0,0,0,13,0.7998766,0,16.77012,0.3485788,0.01296677,14.08133,1.082239,2,20.04448
66.005,34.79679,0,18.63787,7.994675,-0.828598,-17.08797,90,91,-0.8335224,0,42.25324,0.1320017,0,0,0.5445738,-0.6633797,-0.2036064,-2.072504,-30.83129,-28.71498,14.57005,-37.12129,88.62745,1.22,1206,42,23,0,42.7451,44.70588,0.9152201,17.62343,0.25,0,378.6855,341.1,0,5.583794,671,73,4255,0.97,1.15656,0.5,1.156072,0.4921875,0,0,0,0,0,0,0,0,0,0,0,0,14.64,0,0,0,0,0,0,0,0,0,105,43,0,0,0,0,0,0,0,0,0,0,0,0,0,0,0,0,0,0,0,0,0,0,0,0,0,0,0,0,0,0,0,0,0,0,0,0,0,0,0,0,0,0,0,0,0,0,0,0,0,0,0,0,0,0,0,13,0.7998766,0,16.77012,0.3485788,0.01296677,14.08133,1.082239,2,20.04448
67.007,36.6609,6.088234,18.64589,6.454391,0.9070892,4.873993,90,91,-0.003348735,14.31385,42.25324,0.1400176,277.507,4.548032,-2.125071,-0.9903485,0.3891053,-6.403423,-32.6487,-30.09452,3.398138,-29.75049,99.60784,1.35,1283.5,38,23,0,41.96078,41.96078,1.624735,20.75453,0.38,18.35428,370.7658,341,10.31903,5.584887,671,73,4255,0.97,1.391776,1.03125,1.388848,1.027344,0,0,0,0,0,0,0,0,0,0,0,0,14.64,0,0,0,0,0,0,0,0,0,105,43,0,0,0,0,0,0,0,0,0,0,0,0,0,0,0,0,0,0,0,0,0,0,0,0,0,0,0,0,0,0,0,0,0,0,0,0,0,0,0,0,0,0,0,0,0,0,0,0,0,0,0,0,0,0,0,13,0.8468649,0,20.18075,0.3776444,0.01375419,13.78684,1.119715,2,20.04448
68.005,38.52501,4.51018,18.6535,-10.66515,-1.359436,5.165604,90,91,0.4202384,10.44104,42.25324,0.1476319,195.6306,3.369194,0.2058239,-0.3186269,0.2545791,-7.389197,-29.60988,-29.32528,2.14382,-31.80788,56.86274,1.17,1303.5,38,23,0,30.58824,30.98039,0.9934904,18.50238,0.2,13.5969,354.5681,341,7.274478,5.585425,671,73,4255,0.97,1.571848,1.332031,1.555744,1.316406,0,0,0,0,0,0,0,0,0,0,0,0,14.64,0,0,0,0,0,0,0,0,0,105,43,0,0,0,0,0,0,0,0,0,0,0,0,0,0,0,0,0,0,0,0,0,0,0,0,0,0,0,0,0,0,0,0,0,0,0,0,0,0,0,0,0,0,0,0,0,0,0,0,0,0,0,0,0,0,0,13,0.8839243,0,22.7918,0.416371,0.01450215,13.18453,1.149147,2,20.04448
69.005,38.52501,4.51018,18.6535,2.428986,-2.070541,-11.07468,90,91,0.4202384,10.44104,42.25324,0.1476319,195.6306,3.369194,0.5191416,-0.1114864,-0.7033789,-5.314863,-30.75376,-30.97394,5.770021,-32.65315,56.86274,1.17,1303.5,38,23,0,30.58824,30.98039,0.9934904,18.50238,0.2,13.5969,354.5681,340.9,7.274478,5.585425,671,73,4255,0.97,1.571848,1.332031,1.555744,1.316406,0,0,0,0,0,0,0,0,0,0,0,0,14.64,0,0,0,0,0,0,0,0,0,105,43,0,0,0,0,0,0,0,0,0,0,0,0,0,0,0,0,0,0,0,0,0,0,0,0,0,0,0,0,0,0,0,0,0,0,0,0,0,0,0,0,0,0,0,0,0,0,0,0,0,0,0,0,0,0,0,13,0.8839243,0,22.7918,0.416371,0.01450215,13.18453,1.149147,2,20.04448
70.005,39.14639,1.917301,18.65604,-29.31508,17.16071,5.330566,90,91,0.2638471,4.438541,42.25324,0.1501641,81.84354,1.432262,-0.2463097,0.5599164,0.2844348,-7.266985,-31.85782,-31.82039,1.555765,-29.97313,56.86274,1.05,1303.5,38,23,0,22.35294,21.17647,0.7284683,16.6047,0.08,5.780113,335.7018,340.9,3.043333,5.584792,671,73,4255,0.97,2.398032,2.175781,2.180872,2.03125,0,0,0,0,0,0,0,0,0,0,0,0,14.64,0,0,0,0,0,0,0,0,0,105,43,0,0,0,0,0,0,0,0,0,0,0,0,0,0,0,0,0,0,0,0,0,0,0,0,0,0,0,0,0,0,0,0,0,0,0,0,0,0,0,0,0,0,0,0,0,0,0,0,0,0,0,0,0,0,0,13,0.8841779,0,34.77147,0.4473138,0.01475089,12.483,1.179626,2,20.04448
71.005,39.14639,1.917301,18.65604,-24.07547,19.82518,-14.91693,90,91,0.2638471,4.438541,42.25324,0.1501641,81.84354,1.432262,1.481979,0.4003263,-0.400434,-2.717015,-29.49718,-32.43777,8.684717,-34.39775,56.86274,1.05,1303.5,38,23,0,22.35294,21.17647,0.7284683,16.6047,0.08,5.780113,335.7018,340.9,3.043333,5.584792,671,73,4255,0.97,2.398032,2.175781,2.180872,2.03125,0,0,0,0,0,0,0,0,0,0,0,0,14.64,0,0,0,0,0,0,0,0,0,105,43,0,0,0,0,0,0,0,0,0,0,0,0,0,0,0,0,0,0,0,0,0,0,0,0,0,0,0,0,0,0,0,0,0,0,0,0,0,0,0,0,0,0,0,0,0,0,0,0,0,0,0,0,0,0,0,13,0.8841779,0,34.77147,0.4473138,0.01475089,12.483,1.179626,2,20.04448
72.006,38.52501,1.584436,18.65819,23.97314,8.316528,-17.51872,90,91,0.002813606,3.778102,42.25324,0.1523218,68.72547,1.183605,0.2147575,-0.2609172,-0.7312919,-5.271604,-32.5486,-31.77269,6.699965,-31.32935,15.29412,1,1265.5,38,23,0,20.39216,20,0.6019982,15.35299,0.03,4.776621,318.0683,340.9,2.55554,5.584018,671,73,4255,0.97,4.134824,2.824219,3.954752,2.839844,0,0,0,0,0,0,0,0,0,0,0,0,14.64,0,0,0,0,0,0,0,0,0,105,43,0,0,0,0,0,0,0,0,0,0,0,0,0,0,0,0,0,0,0,0,0,0,0,0,0,0,0,0,0,0,0,0,0,0,0,0,0,0,0,0,0,0,0,0,0,0,0,0,0,0,0,0,0,0,0,13,0.6689667,0,59.95495,0.4788967,0.01496285,11.82729,1.209035,2,20.04448
73.006,38.52501,1.584436,18.65819,6.435654,4.145477,-9.259003,90,91,0.002813606,3.778102,42.25324,0.1523218,68.72547,1.183605,0.1820931,0.5307703,-0.8963281,-4.384449,-31.54954,-31.90654,6.413658,-29.57027,15.29412,1,1265.5,38,23,0,20.39216,20,0.6019982,15.35299,0.03,4.776621,318.0683,340.9,2.55554,5.584018,671,73,4255,0.97,4.134824,2.824219,3.954752,2.839844,0,0,0,0,0,0,0,0,0,0,0,0,14.64,0,0,0,0,0,0,0,0,0,105,43,0,0,0,0,0,0,0,0,0,0,0,0,0,0,0,0,0,0,0,0,0,0,0,0,0,0,0,0,0,0,0,0,0,0,0,0,0,0,0,0,0,0,0,0,0,0,0,0,0,0,0,0,0,0,0,13,0.6689667,0,59.95495,0.4788967,0.01496285,11.82729,1.209035,2,20.04448
74.008,37.28227,0.4051194,18.65873,6.356781,2.035904,9.928513,90,91,-0.2322022,0.9842885,42.25324,0.1528584,18.15793,0.3026322,-0.08362893,-0.1381026,0.2844584,-6.580859,-35.49612,-31.25525,6.748217,-28.66574,12.54902,1.02,1242,34,23,0,23.92157,26.66667,0.5894618,15.36925,0.05,1.221319,300.6151,341,0.6751984,5.58285,671,73,4255,0.97,1.999824,1.835938,2.017392,1.882813,0,0,0,0,0,0,0,0,0,0,0,0,14.64,0,0,0,0,0,0,0,0,0,105,43,0,0,0,0,0,0,0,0,0,0,0,0,0,0,0,0,0,0,0,0,0,0,0,0,0,0,0,0,0,0,0,0,0,0,0,0,0,0,0,0,0,0,0,0,0,0,0,0,0,0,0,0,0,0,0,13,0.4907935,0,28.99745,0.5084854,0.01501556,11.1783,1.244485,2,20.04448
75.006,37.28227,0.4051194,18.65873,-5.301727,-3.218018,6.888062,90,91,-0.2322022,0.9842885,42.25324,0.1528584,18.15793,0.3026322,0.2237592,-0.6627474,-0.3292602,-4.137985,-33.73096,-32.22645,7.30344,-29.73703,12.54902,1.02,1242,34,23,0,23.92157,26.66667,0.5894618,15.36925,0.05,1.221319,300.6151,341,0.6751984,5.58285,671,73,4255,0.97,1.999824,1.835938,2.017392,1.882813,0,0,0,0,0,0,0,0,0,0,0,0,14.64,0,0,0,0,0,0,0,0,0,105,43,0,0,0,0,0,0,0,0,0,0,0,0,0,0,0,0,0,0,0,0,0,0,0,0,0,0,0,0,0,0,0,0,0,0,0,0,0,0,0,0,0,0,0,0,0,0,0,0,0,0,0,0,0,0,0,13,0.4907935,0,28.99745,0.5084854,0.01501556,11.1783,1.244485,2,20.04448
76.006,37.28227,0.4304745,18.65942,-1.293533,0.9412384,15.77753,90,91,-0.1564659,1.040864,42.25324,0.1535453,19.29438,0.321573,0.1656854,-0.6896011,0.232059,-3.436479,-35.8373,-33.08106,9.720646,-28.41769,59.60784,1.08,1248,34,23,0,29.01961,29.01961,0.7678139,16.56488,0.11,1.297757,282.3123,341.1,0.7174569,5.581465,671,73,4255,0.97,1.560624,1.316406,1.565016,1.335938,0,0,0,0,0,0,0,0,0,0,0,0,14.64,0,0,0,0,0,0,0,0,0,105,43,0,0,0,0,0,0,0,0,0,0,0,0,0,0,0,0,0,0,0,0,0,0,0,0,0,0,0,0,0,0,0,0,0,0,0,0,0,0,0,0,0,0,0,0,0,0,0,0,0,0,0,0,0,0,0,13,0.2323338,0,22.62905,0.5438847,0.01508304,10.49772,1.274217,2,20.04448
77.006,37.28227,0.4304745,18.65942,1.380081,0.8455048,-3.132431,90,91,-0.1564659,1.040864,42.25324,0.1535453,19.29438,0.321573,-0.004956526,-1.597335,0.08473483,-4.53816,-36.53485,-32.04708,7.486107,-28.47092,59.60784,1.08,1248,34,23,0,29.01961,29.01961,0.7678139,16.56488,0.11,1.297757,282.3123,341.2,0.7174569,5.581465,671,73,4255,0.97,1.560624,1.316406,1.565016,1.335938,0,0,0,0,0,0,0,0,0,0,0,0,14.64,0,0,0,0,0,0,0,0,0,105,43,0,0,0,0,0,0,0,0,0,0,0,0,0,0,0,0,0,0,0,0,0,0,0,0,0,0,0,0,0,0,0,0,0,0,0,0,0,0,0,0,0,0,0,0,0,0,0,0,0,0,0,0,0,0,0,13,0.2323338,0,22.62905,0.5438847,0.01508304,10.49772,1.274217,2,20.04448
78.006,37.28227,1.903435,18.66193,-8.150909,8.164993,-5.968185,90,91,4.440892E-16,4.604247,42.25324,0.1560543,85.31424,1.421904,0.2796954,0.166755,-1.092736,-5.347624,-36.00898,-31.83757,4.321833,-27.70418,58.82353,1.08,1247.5,34,23,0,27.05882,26.66667,0.7113119,16.55825,0.11,5.738313,272.1148,341.3,3.17239,5.580886,671,73,4255,0.97,1.597712,1.367188,1.5982,1.386719,0,0,0,0,0,0,0,0,0,0,0,0,14.64,0,0,0,0,0,0,0,0,0,105,43,0,0,0,0,0,0,0,0,0,0,0,0,0,0,0,0,0,0,0,0,0,0,0,0,0,0,0,0,0,0,0,0,0,0,0,0,0,0,0,0,0,0,0,0,0,0,0,0,0,0,0,0,0,0,0,13,-0.02209584,0,23.16682,0.573487,0.0153295,10.11852,1.304735,2,20.04448
79.006,37.28227,1.903435,18.66193,5.726517,-1.37912,5.41301,90,91,4.440892E-16,4.604247,42.25324,0.1560543,85.31424,1.421904,0.7004855,0.0514746,-0.03833929,-4.967789,-37.01239,-30.35601,6.441256,-27.31276,58.82353,1.08,1247.5,34,23,0,27.05882,26.66667,0.7113119,16.55825,0.11,5.738313,272.1148,341.3,3.17239,5.580886,671,73,4255,0.97,1.597712,1.367188,1.5982,1.386719,0,0,0,0,0,0,0,0,0,0,0,0,14.64,0,0,0,0,0,0,0,0,0,105,43,0,0,0,0,0,0,0,0,0,0,0,0,0,0,0,0,0,0,0,0,0,0,0,0,0,0,0,0,0,0,0,0,0,0,0,0,0,0,0,0,0,0,0,0,0,0,0,0,0,0,0,0,0,0,0,13,-0.02209584,0,23.16682,0.573487,0.0153295,10.11852,1.304735,2,20.04448
80.006,37.28227,1.931763,18.66456,6.483322,-0.3821564,2.309708,90,91,4.440892E-16,4.682153,42.25324,0.1586908,86.58393,1.443066,0.16033,-0.2322268,-0.6106899,-6.970381,-36.68687,-31.37082,4.326809,-27.64903,54.11765,1.05,1245,34,23,0,22.7451,23.13725,0.7318166,16.06603,0.08,5.823713,262.7569,341.4,3.219603,5.580308,671,73,4255,0.97,1.625528,1.402344,1.650904,1.460938,0,0,0,0,0,0,0,0,0,0,0,0,14.64,0,0,0,0,0,0,0,0,0,105,43,0,0,0,0,0,0,0,0,0,0,0,0,0,0,0,0,0,0,0,0,0,0,0,0,0,0,0,0,0,0,0,0,0,0,0,0,0,0,0,0,0,0,0,0,0,0,0,0,0,0,0,0,0,0,0,13,-0.1133873,0,23.57016,0.6039451,0.01558848,9.770555,1.334634,2,20.04448
81.006,37.28227,1.931763,18.66456,7.196731,-0.504715,-13.89156,90,91,4.440892E-16,4.682153,42.25324,0.1586908,86.58393,1.443066,0.5439986,-0.6457422,-0.6363934,-4.963148,-37.60905,-33.82277,6.231699,-26.9015,54.11765,1.05,1245,34,23,0,22.7451,23.13725,0.7318166,16.06603,0.08,5.823713,262.7569,341.4,3.219603,5.580308,671,73,4255,0.97,1.625528,1.402344,1.650904,1.460938,0,0,0,0,0,0,0,0,0,0,0,0,14.64,0,0,0,0,0,0,0,0,0,105,43,0,0,0,0,0,0,0,0,0,0,0,0,0,0,0,0,0,0,0,0,0,0,0,0,0,0,0,0,0,0,0,0,0,0,0,0,0,0,0,0,0,0,0,0,0,0,0,0,0,0,0,0,0,0,0,13,-0.1133873,0,23.57016,0.6039451,0.01558848,9.770555,1.334634,2,20.04448
82.006,37.28227,1.931763,18.66456,5.474792,-11.2466,-6.815598,90,91,4.440892E-16,4.682153,42.25324,0.1586908,86.58393,1.443066,-1.317498,-0.3549323,0.8109195,-6.192783,-40.24807,-32.68299,5.375622,-25.65553,54.11765,1.05,1245,34,23,0,22.7451,23.13725,0.7318166,16.06603,0.08,5.823713,262.7569,341.5,3.219603,5.580308,671,73,4255,0.97,1.625528,1.402344,1.650904,1.460938,0,0,0,0,0,0,0,0,0,0,0,0,14.64,0,0,0,0,0,0,0,0,0,105,43,0,0,0,0,0,0,0,0,0,0,0,0,0,0,0,0,0,0,0,0,0,0,0,0,0,0,0,0,0,0,0,0,0,0,0,0,0,0,0,0,0,0,0,0,0,0,0,0,0,0,0,0,0,0,0,13,-0.1133873,0,23.57016,0.6039451,0.01558848,9.770555,1.334634,2,20.04448
83.006,36.6609,2.084514,18.66737,-1.540451,-2.97139,9.868347,90,90,-0.07707844,5.105698,42.25324,0.1614988,95.01395,1.557173,0.4269724,0.4483911,1.066375,-3.656965,-39.81014,-33.14301,9.482508,-27.78699,58.03922,1.07,1232,37,23,0,23.52941,23.13725,0.8600753,16.2011,0.1,6.284212,254.9404,341.6,3.533072,5.579823,691,73,4256,0.97,2.205272,2.015625,2.13744,2,0,0,0,0,0,0,0,0,0,0,0,0,12.96,0,0,0,0,0,0,0,0,0,84,44,0,0,0,0,0,0,0,0,0,0,0,0,0,0,0,0,0,0,0,0,0,0,0,0,0,0,0,0,0,0,0,0,0,0,0,0,0,0,0,0,0,0,0,0,0,0,0,0,0,0,0,0,0,0,0,13,-0.009756476,0,31.97644,0.6334766,0.01586432,9.4799,1.387538,2,20.04448
84.006,36.6609,2.084514,18.66737,9.668472,-4.020493,-18.31064,90,90,-0.07707844,5.105698,42.25324,0.1614988,95.01395,1.557173,-0.144354,0.3286625,-0.2976886,-3.096462,-39.4827,-32.41419,9.94351,-27.64624,58.03922,1.07,1232,37,23,0,23.52941,23.13725,0.8600753,16.2011,0.1,6.284212,254.9404,341.7,3.533072,5.579823,691,73,4256,0.97,2.205272,2.015625,2.13744,2,0,0,0,0,0,0,0,0,0,0,0,0,12.96,0,0,0,0,0,0,0,0,0,84,44,0,0,0,0,0,0,0,0,0,0,0,0,0,0,0,0,0,0,0,0,0,0,0,0,0,0,0,0,0,0,0,0,0,0,0,0,0,0,0,0,0,0,0,0,0,0,0,0,0,0,0,0,0,0,0,13,-0.009756476,0,31.97644,0.6334766,0.01586432,9.4799,1.387538,2,20.04448
85.009,36.03953,1.693662,18.6714,11.69096,43.28749,16.35956,90,90,-0.1208311,4.225536,42.25324,0.1655278,78.52959,1.265199,0.1943342,-0.2740359,-0.4423603,-5.631921,-38.21381,-31.99132,4.697891,-27.39476,36.47059,1.03,1209.5,37,23,0,22.35294,21.96078,0.6648989,15.16254,0.06,5.105905,241.7806,341.7,2.920104,5.578733,691,73,4256,0.97,2.219912,2.023438,2.222352,2.058594,0,0,0,0,0,0,0,0,0,0,0,0,12.96,0,0,0,0,0,0,0,0,0,84,44,0,0,0,0,0,0,0,0,0,0,0,0,0,0,0,0,0,0,0,0,0,0,0,0,0,0,0,0,0,0,0,0,0,0,0,0,0,0,0,0,0,0,0,0,0,0,0,0,0,0,0,0,0,0,0,13,0.029151,0,32.18872,0.6846198,0.0162601,8.990556,1.41697,2,20.04448
86.007,35.41816,1.061058,18.6728,16.04185,-9.716858,0.386261,90,90,-0.1221865,2.676008,42.25324,0.1669308,50.06093,0.7926314,-0.3595425,-0.220607,-0.0888018,-7.279801,-38.85586,-32.53188,6.024321,-29.31377,36.86274,1.03,1196.5,37,23,0,22.35294,23.13725,0.67523,14.99957,0.06,3.198786,234.2372,341.7,1.861504,5.577896,691,73,4256,0.97,1.862208,1.6875,1.894904,1.753906,0,0,0,0,0,0,0,0,0,0,0,0,12.96,0,0,0,0,0,0,0,0,0,84,44,0,0,0,0,0,0,0,0,0,0,0,0,0,0,0,0,0,0,0,0,0,0,0,0,0,0,0,0,0,0,0,0,0,0,0,0,0,0,0,0,0,0,0,0,0,0,0,0,0,0,0,0,0,0,0,13,-0.03352403,0,27.00202,0.7126571,0.01639791,8.710053,1.447445,2,20.04448
87.007,35.41816,1.061058,18.6728,21.75764,-18.35957,7.063202,90,90,-0.1221865,2.676008,42.25324,0.1669308,50.06093,0.7926314,0.2844349,-0.2364569,0.7716116,-8.540581,-39.60339,-31.65227,4.145746,-28.77432,36.86274,1.03,1196.5,37,23,0,22.35294,23.13725,0.67523,14.99957,0.06,3.198786,234.2372,341.9,1.861504,5.577896,691,73,4256,0.97,1.862208,1.6875,1.894904,1.753906,0,0,0,0,0,0,0,0,0,0,0,0,12.96,0,0,0,0,0,0,0,0,0,84,44,0,0,0,0,0,0,0,0,0,0,0,0,0,0,0,0,0,0,0,0,0,0,0,0,0,0,0,0,0,0,0,0,0,0,0,0,0,0,0,0,0,0,0,0,0,0,0,0,0,0,0,0,0,0,0,13,-0.03352403,0,27.00202,0.7126571,0.01639791,8.710053,1.447445,2,20.04448
88.007,35.41816,1.195467,18.67443,-3.834259,-9.601959,1.885208,90,90,-0.07843383,3.018774,42.25324,0.1685566,56.40235,0.8930372,-0.383598,-0.4917257,0.5369692,-7.32842,-37.88372,-32.66248,2.798235,-27.3956,50.58823,1.06,1195,37,23,0,27.05882,28.23529,0.7608486,15.4171,0.09,3.603989,227.2883,341.9,2.097308,5.577085,691,73,4256,0.97,1.837808,1.671875,1.829024,1.691406,0,0,0,0,0,0,0,0,0,0,0,0,12.96,0,0,0,0,0,0,0,0,0,84,44,0,0,0,0,0,0,0,0,0,0,0,0,0,0,0,0,0,0,0,0,0,0,0,0,0,0,0,0,0,0,0,0,0,0,0,0,0,0,0,0,0,0,0,0,0,0,0,0,0,0,0,0,0,0,0,13,-0.07058344,0,26.64822,0.7415981,0.01655762,8.451664,1.477163,2,20.04448
89.007,35.41816,1.195467,18.67443,12.22588,1.698441,2.245316,90,90,-0.07843383,3.018774,42.25324,0.1685566,56.40235,0.8930372,0.2170193,0.1418696,-0.2880837,-5.779453,-36.77722,-30.72719,5.850199,-29.72639,50.58823,1.06,1195,37,23,0,27.05882,28.23529,0.7608486,15.4171,0.09,3.603989,227.2883,342,2.097308,5.577085,691,73,4256,0.97,1.837808,1.671875,1.829024,1.691406,0,0,0,0,0,0,0,0,0,0,0,0,12.96,0,0,0,0,0,0,0,0,0,84,44,0,0,0,0,0,0,0,0,0,0,0,0,0,0,0,0,0,0,0,0,0,0,0,0,0,0,0,0,0,0,0,0,0,0,0,0,0,0,0,0,0,0,0,0,0,0,0,0,0,0,0,0,0,0,0,13,-0.07058344,0,26.64822,0.7415981,0.01655762,8.451664,1.477163,2,20.04448
90.007,35.41816,1.397756,18.67628,-0.1620483,0.2787476,-13.80328,90,90,4.440892E-16,3.562385,42.25324,0.1704111,65.94643,1.044152,-0.7533401,-0.2176764,0.3399419,-5.607841,-36.01847,-30.92398,5.377563,-26.903,49.01961,1.08,1184,37,23,0,21.56863,21.17647,0.6490457,15.56339,0.11,4.213836,221.4284,342,2.452203,5.576385,691,73,4256,0.97,2.474648,2.21875,2.255048,2.09375,0,0,0,0,0,0,0,0,0,0,0,0,12.96,0,0,0,0,0,0,0,0,0,84,44,0,0,0,0,0,0,0,0,0,0,0,0,0,0,0,0,0,0,0,0,0,0,0,0,0,0,0,0,0,0,0,0,0,0,0,0,0,0,0,0,0,0,0,0,0,0,0,0,0,0,0,0,0,0,0,13,-0.08629344,0,35.8824,0.7695993,0.01673979,8.233763,1.512675,2,20.04448
91.007,35.41816,1.397756,18.67628,26.52879,-19.00778,-2.826569,90,90,4.440892E-16,3.562385,42.25324,0.1704111,65.94643,1.044152,1.258971,-1.119352,-0.09728583,-1.686725,-40.2126,-27.87189,15.95984,-33.13326,49.01961,1.08,1184,37,23,0,21.56863,21.17647,0.6490457,15.56339,0.11,4.213836,221.4284,342.1,2.452203,5.576385,691,73,4256,0.97,2.474648,2.21875,2.255048,2.09375,0,0,0,0,0,0,0,0,0,0,0,0,12.96,0,0,0,0,0,0,0,0,0,84,44,0,0,0,0,0,0,0,0,0,0,0,0,0,0,0,0,0,0,0,0,0,0,0,0,0,0,0,0,0,0,0,0,0,0,0,0,0,0,0,0,0,0,0,0,0,0,0,0,0,0,0,0,0,0,0,13,-0.08629344,0,35.8824,0.7695993,0.01673979,8.233763,1.512675,2,20.04448
92.009,34.17542,1.103332,18.67804,-10.91899,6.683136,1.329926,90,90,-0.1303823,2.942474,42.25324,0.1721691,53.94834,0.8242108,0.7704819,0.2679128,1.570593,-2.038712,-38.74922,-32.7028,11.13,-29.32187,5.882353,1.02,1131.5,37,23,0,17.64706,15.29412,0.5336369,14.047,0.05,3.32623,214.635,342.2,2.006057,5.575453,691,73,4256,0.97,15.9903,3.597656,9.475984,3.5,0,0,0,0,0,0,0,0,0,0,0,0,12.96,0,0,0,0,0,0,0,0,0,84,44,0,0,0,0,0,0,0,0,0,0,0,0,0,0,0,0,0,0,0,0,0,0,0,0,0,0,0,0,0,0,0,0,0,0,0,0,0,0,0,0,0,0,0,0,0,0,0,0,0,0,0,0,0,0,0,13,-0.09722263,0,231.8593,0.8021483,0.01691249,7.981153,1.542067,2,20.04448
93.007,34.17542,1.103332,18.67804,13.73473,7.74585,13.80522,90,90,-0.1303823,2.942474,42.25324,0.1721691,53.94834,0.8242108,0.6421422,-0.6221178,-2.110505,-3.957378,-39.66759,-31.58904,7.843699,-27.67899,5.882353,1.02,1131.5,37,23,0,17.64706,15.29412,0.5336369,14.047,0.05,3.32623,214.635,342.4,2.006057,5.575453,691,73,4256,0.97,15.9903,3.597656,9.475984,3.5,0,0,0,0,0,0,0,0,0,0,0,0,12.96,0,0,0,0,0,0,0,0,0,84,44,0,0,0,0,0,0,0,0,0,0,0,0,0,0,0,0,0,0,0,0,0,0,0,0,0,0,0,0,0,0,0,0,0,0,0,0,0,0,0,0,0,0,0,0,0,0,0,0,0,0,0,0,0,0,0,13,-0.09722263,0,231.8593,0.8021483,0.01691249,7.981153,1.542067,2,20.04448
94.007,32.93267,0.1280955,18.67821,-4.806564,-4.350143,4.322372,90,90,-0.287132,0.3575768,42.25324,0.1723385,6.499692,0.09568991,-0.5459437,-0.4108676,0.4238852,-3.817489,-38.95086,-32.56069,7.964909,-28.90259,0,0.99,1081,37,23,0,16.07843,16.47059,0.5402436,13.02536,0.02,0.3861714,208.0785,342.4,0.2416895,5.574336,691,73,4256,0.97,15.9903,3.875,15.9903,3.90625,0,0,0,0,0,0,0,0,0,0,0,0,12.96,0,0,0,0,0,0,0,0,0,84,44,0,0,0,0,0,0,0,0,0,0,0,0,0,0,0,0,0,0,0,0,0,0,0,0,0,0,0,0,0,0,0,0,0,0,0,0,0,0,0,0,0,0,0,0,0,0,0,0,0,0,0,0,0,0,0,14.7,-0.0972794,0,231.8593,0.8282378,0.01692913,7.737351,1.572548,2,20.04448
95.007,32.93267,0.1280955,18.67821,-4.833344,0.07374573,-9.516388,90,90,-0.287132,0.3575768,42.25324,0.1723385,6.499692,0.09568991,-0.5718823,0.01259617,0.02875796,-3.802328,-39.97048,-32.70472,10.8413,-29.62538,0,0.99,1081,37,23,0,16.07843,16.47059,0.5402436,13.02536,0.02,0.3861714,208.0785,342.4,0.2416895,5.574336,691,73,4256,0.97,15.9903,3.875,15.9903,3.90625,0,0,0,0,0,0,0,0,0,0,0,0,12.96,0,0,0,0,0,0,0,0,0,84,44,0,0,0,0,0,0,0,0,0,0,0,0,0,0,0,0,0,0,0,0,0,0,0,0,0,0,0,0,0,0,0,0,0,0,0,0,0,0,0,0,0,0,0,0,0,0,0,0,0,0,0,0,0,0,0,14.7,-0.0972794,0,231.8593,0.8282378,0.01692913,7.737351,1.572548,2,20.04448
96.007,31.68993,0,18.67821,-1.312317,-9.728424,-18.61519,90,90,-0.3086978,0,42.25324,0.1723385,0,0,0.02079665,0.679045,-0.2576954,-4.83233,-38.6223,-31.18548,7.636658,-29.05342,0,1.02,1037,37,23,0,15.29412,14.90196,1.236611,12.87383,0.05,0,201.7694,342.5,0,5.573177,691,73,4256,0.97,15.9903,3.929688,15.9903,3.976563,0,0,0,0,0,0,0,0,0,0,0,0,12.96,0,0,0,0,0,0,0,0,0,84,44,0,0,0,0,0,0,0,0,0,0,0,0,0,0,0,0,0,0,0,0,0,0,0,0,0,0,0,0,0,0,0,0,0,0,0,0,0,0,0,0,0,0,0,0,0,0,0,0,0,0,0,0,0,0,0,14.7,-0.127669,0,231.8593,0.854136,0.01692913,7.502748,1.602304,2,20.04448
97.007,31.68993,0,18.67821,10.44028,-2.88826,-4.164902,90,90,-0.3086978,0,42.25324,0.1723385,0,0,0.01877187,0.4813115,0.9659495,-4.133191,-39.76954,-31.07397,12.11448,-29.34242,0,1.02,1037,37,23,0,15.29412,14.90196,1.236611,12.87383,0.05,0,201.7694,342.6,0,5.573177,691,73,4256,0.97,15.9903,3.929688,15.9903,3.976563,0,0,0,0,0,0,0,0,0,0,0,0,12.96,0,0,0,0,0,0,0,0,0,84,44,0,0,0,0,0,0,0,0,0,0,0,0,0,0,0,0,0,0,0,0,0,0,0,0,0,0,0,0,0,0,0,0,0,0,0,0,0,0,0,0,0,0,0,0,0,0,0,0,0,0,0,0,0,0,0,14.7,-0.127669,0,231.8593,0.854136,0.01692913,7.502748,1.602304,2,20.04448
98.007,29.82582,0,18.67821,-6.048004,1.675888,-10.8403,90,90,-0.38649,0,42.25324,0.1723385,0,0,-0.1170621,0.5927187,0.7167441,-4.826926,-41.12352,-31.35205,10.02644,-29.1842,0,1.06,1262.5,41,23,0,15.29412,14.90196,1.665425,16.28794,0.09,0,196.3249,342.6,0,5.572118,691,73,4256,0.97,15.9903,3.933594,15.9903,3.988281,0,0,0,0,0,0,0,0,0,0,0,0,12.96,0,0,0,0,0,0,0,0,0,84,44,0,0,0,0,0,0,0,0,0,0,0,0,0,0,0,0,0,0,0,0,0,0,0,0,0,0,0,0,0,0,0,0,0,0,0,0,0,0,0,0,0,0,0,0,0,0,0,0,0,0,0,0,0,0,0,14.7,-0.1745774,0,231.8593,0.8778228,0.01692913,7.300296,1.637365,2,20.04448
99.007,29.82582,0,18.67821,-15.80779,9.929764,-0.238739,90,90,-0.38649,0,42.25324,0.1723385,0,0,0.5997554,0.1450939,-0.6510298,-4.119975,-39.00546,-30.57716,11.52806,-30.9144,0,1.06,1262.5,41,23,0,15.29412,14.90196,1.665425,16.28794,0.09,0,196.3249,342.8,0,5.572118,691,73,4256,0.97,15.9903,3.933594,15.9903,3.988281,0,0,0,0,0,0,0,0,0,0,0,0,12.96,0,0,0,0,0,0,0,0,0,84,44,0,0,0,0,0,0,0,0,0,0,0,0,0,0,0,0,0,0,0,0,0,0,0,0,0,0,0,0,0,0,0,0,0,0,0,0,0,0,0,0,0,0,0,0,0,0,0,0,0,0,0,0,0,0,0,14.7,-0.1745774,0,231.8593,0.8778228,0.01692913,7.300296,1.637365,2,20.04448
100.007,27.9617,0,18.67821,4.697372,-3.253662,5.397171,90,90,-0.4306791,0,42.25324,0.1723385,0,0,0.1368692,-0.1074822,-0.1595874,-3.421135,-39.52044,-32.07231,11.27331,-30.92758,0,1.06,1174,41,23,0,24.31373,23.92157,1.274198,14.95331,0.09,0,190.5604,342.9,0,5.570931,691,73,4256,0.97,2.340448,2.097656,2.69132,2.351563,0,0,0,0,0,0,0,0,0,0,0,0,12.96,0,0,0,0,0,0,0,0,0,84,44,0,0,0,0,0,0,0,0,0,0,0,0,0,0,0,0,0,0,0,0,0,0,0,0,0,0,0,0,0,0,0,0,0,0,0,0,0,0,0,0,0,0,0,0,0,0,0,0,0,0,0,0,0,0,0,14.7,-0.2138048,0,33.9365,0.9043773,0.01692913,7.085943,1.667166,2,20.04448
101.007,27.9617,0,18.67821,-8.298279,5.083694,-11.09972,90,90,-0.4306791,0,42.25324,0.1723385,0,0,0.08829803,0.529466,0.3266769,-2.752972,-40.85523,-32.09104,11.86891,-29.62131,0,1.06,1174,41,23,0,24.31373,23.92157,1.274198,14.95331,0.09,0,190.5604,343,0,5.570931,691,73,4256,0.97,2.340448,2.097656,2.69132,2.351563,0,0,0,0,0,0,0,0,0,0,0,0,12.96,0,0,0,0,0,0,0,0,0,84,44,0,0,0,0,0,0,0,0,0,0,0,0,0,0,0,0,0,0,0,0,0,0,0,0,0,0,0,0,0,0,0,0,0,0,0,0,0,0,0,0,0,0,0,0,0,0,0,0,0,0,0,0,0,0,0,14.7,-0.2138048,0,33.9365,0.9043773,0.01692913,7.085943,1.667166,2,20.04448
102.008,27.34033,0,18.67821,3.390213,-1.367081,-3.019455,90,90,-0.2746248,0,42.25324,0.1723385,0,0,-0.248108,0.0008097345,-0.05413541,-3.099565,-39.75381,-31.09056,11.91898,-30.44376,27.84314,1.04,1159.5,41,23,0,15.29412,14.90196,0.7400633,14.48997,0.07,0,186.1096,343.1,0,5.569965,710,73,4256,0.97,1.221952,0.6601563,1.387384,0.9960938,0,0,0,0,0,0,0,0,0,0,0,0,14.18,0,0,0,0,0,0,0,0,0,77,44,0,0,0,0,0,0,0,0,0,0,0,0,0,0,0,0,0,0,0,0,0,0,0,0,0,0,0,0,0,0,0,0,0,0,0,0,0,0,0,0,0,0,0,0,0,0,0,0,0,0,0,0,0,0,0,13,-0.2140867,0,17.7183,0.9260054,0.01692913,6.920442,1.705314,2,20.04448
103.009,27.34033,0,18.67821,10.04913,4.031845,-4.147903,90,90,-0.2746248,0,42.25324,0.1723385,0,0,0.7101356,0.1874448,-1.284916,-2.863023,-40.57031,-33.36245,12.38744,-28.36139,27.84314,1.04,1159.5,41,23,0,15.29412,14.90196,0.7400633,14.48997,0.07,0,186.1096,343.1,0,5.569965,710,73,4256,0.97,1.221952,0.6601563,1.387384,0.9960938,0,0,0,0,0,0,0,0,0,0,0,0,14.18,0,0,0,0,0,0,0,0,0,77,44,0,0,0,0,0,0,0,0,0,0,0,0,0,0,0,0,0,0,0,0,0,0,0,0,0,0,0,0,0,0,0,0,0,0,0,0,0,0,0,0,0,0,0,0,0,0,0,0,0,0,0,0,0,0,0,13,-0.2140867,0,17.7183,0.9260054,0.01692913,6.920442,1.705314,2,20.04448
104.008,27.34033,1.149887,18.68016,-17.74013,3.22258,6.340805,90,90,-0.07848755,2.84301,42.25324,0.1742916,70.28087,0.8589884,0.5675275,0.2681832,-0.4932461,-5.114421,-42.24528,-32.57469,7.633116,-27.89603,100,1.15,1220.5,41,23,0,34.90196,32.54902,1.012728,16.8655,0.18,3.46658,182.7101,343.1,2.613378,5.569301,710,73,4256,0.97,1.453264,1.136719,1.450824,1.144531,0,0,0,0,0,0,0,0,0,0,0,0,14.18,0,0,0,0,0,0,0,0,0,77,44,0,0,0,0,0,0,0,0,0,0,0,0,0,0,0,0,0,0,0,0,0,0,0,0,0,0,0,0,0,0,0,0,0,0,0,0,0,0,0,0,0,0,0,0,0,0,0,0,0,0,0,0,0,0,0,13,-0.2053361,0,21.07233,0.9539245,0.01712098,6.794031,1.734668,2,20.04448
105.008,27.34033,1.149887,18.68016,-5.54013,-0.9681702,2.274017,90,90,-0.07848755,2.84301,42.25324,0.1742916,70.28087,0.8589884,0.6200278,-0.08331703,-0.5864054,-1.187395,-41.37374,-32.1553,12.93423,-28.24272,100,1.15,1220.5,41,23,0,34.90196,32.54902,1.012728,16.8655,0.18,3.46658,182.7101,343.2,2.613378,5.569301,710,73,4256,0.97,1.453264,1.136719,1.450824,1.144531,0,0,0,0,0,0,0,0,0,0,0,0,14.18,0,0,0,0,0,0,0,0,0,77,44,0,0,0,0,0,0,0,0,0,0,0,0,0,0,0,0,0,0,0,0,0,0,0,0,0,0,0,0,0,0,0,0,0,0,0,0,0,0,0,0,0,0,0,0,0,0,0,0,0,0,0,0,0,0,0,13,-0.2053361,0,21.07233,0.9539245,0.01712098,6.794031,1.734668,2,20.04448
106.008,27.9617,3.617666,18.68497,-2.675507,6.65416,-7.136948,90,90,0.07859605,8.643431,42.25324,0.1790942,216.1975,2.702468,0.7694436,0.3669921,-1.121871,-2.127361,-41.44691,-31.32047,13.82821,-29.63243,76.47059,1.08,1263,37,23,0,33.33333,34.5098,0.8427857,16.39044,0.11,10.90623,183.4956,343.3,8.039252,5.569746,710,73,4256,0.97,1.264408,0.7578125,1.261968,0.7578125,0,0,0,0,0,0,0,0,0,0,0,0,14.18,0,0,0,0,0,0,0,0,0,77,44,0,0,0,0,0,0,0,0,0,0,0,0,0,0,0,0,0,0,0,0,0,0,0,0,0,0,0,0,0,0,0,0,0,0,0,0,0,0,0,0,0,0,0,0,0,0,0,0,0,0,0,0,0,0,0,13,-0.1739302,0,18.33392,0.9760135,0.01759274,6.82324,1.770024,2,20.04448
107.008,29.20445,3.368534,18.69032,13.16017,1.027283,-3.920181,90,90,0.2091581,7.622702,42.25324,0.1844458,192.7426,2.516362,-1.1783,0.03609188,-1.32425,-6.287781,-40.5751,-22.10086,20.8274,-38.20111,94.11765,1.19,1333.5,37,23,0,37.64706,37.64706,0.9790488,19.31385,0.22,10.15516,183.7494,343.3,7.167088,5.570101,710,73,4256,0.97,1.1834,0.5664063,1.20048,0.609375,0,0,0,0,0,0,0,0,0,0,0,0,14.18,0,0,0,0,0,0,0,0,0,77,44,0,0,0,0,0,0,0,0,0,0,0,0,0,0,0,0,0,0,0,0,0,0,0,0,0,0,0,0,0,0,0,0,0,0,0,0,0,0,0,0,0,0,0,0,0,0,0,0,0,0,0,0,0,0,0,13,-0.1478177,0,17.1593,1.00379,0.01811844,6.832677,1.799427,2,20.04448
108.008,29.20445,3.368534,18.69032,-1.411057,-26.44595,-15.51163,90,90,0.2091581,7.622702,42.25324,0.1844458,192.7426,2.516362,-1.183,0.6931792,0.1153667,-13.64909,-31.19125,-9.958858,14.0636,-43.96527,94.11765,1.19,1333.5,37,23,0,37.64706,37.64706,0.9790488,19.31385,0.22,10.15516,183.7494,343.4,7.167088,5.570101,710,73,4256,0.97,1.1834,0.5664063,1.20048,0.609375,0,0,0,0,0,0,0,0,0,0,0,0,14.18,0,0,0,0,0,0,0,0,0,77,44,0,0,0,0,0,0,0,0,0,0,0,0,0,0,0,0,0,0,0,0,0,0,0,0,0,0,0,0,0,0,0,0,0,0,0,0,0,0,0,0,0,0,0,0,0,0,0,0,0,0,0,0,0,0,0,13,-0.1478177,0,17.1593,1.00379,0.01811844,6.832677,1.799427,2,20.04448
109.008,31.06856,4.972311,18.69688,4.178635,22.51103,-2.668839,90,90,0.3648845,10.93218,42.25324,0.1910079,267.4379,3.714415,0.2101655,-0.2992069,0.2267224,-13.31833,-36.15414,-15.75974,19.08706,-42.17934,75.68627,1.25,1372.5,37,23,0,36.47059,36.86274,1.11213,20.88099,0.28,14.99009,185.7174,343.4,9.944614,5.570954,710,73,4256,0.97,1.268312,0.7226563,1.297592,0.828125,0,0,0,0,0,0,0,0,0,0,0,0,14.18,0,0,0,0,0,0,0,0,0,77,44,0,0,0,0,0,0,0,0,0,0,0,0,0,0,0,0,0,0,0,0,0,0,0,0,0,0,0,0,0,0,0,0,0,0,0,0,0,0,0,0,0,0,0,0,0,0,0,0,0,0,0,0,0,0,0,13,-0.1009532,0,18.39052,1.028487,0.01876305,6.905857,1.830285,2,20.04448
110.010,31.06856,4.972311,18.69688,-33.68564,-22.70747,-9.25647,90,90,0.3648845,10.93218,42.25324,0.1910079,267.4379,3.714415,0.7857735,0.1215061,1.030309,-3.044408,-39.36086,-28.46479,19.48307,-37.14162,75.68627,1.25,1372.5,37,23,0,36.47059,36.86274,1.11213,20.88099,0.28,14.99009,185.7174,343.5,9.944614,5.570954,710,73,4256,0.97,1.268312,0.7226563,1.297592,0.828125,0,0,0,0,0,0,0,0,0,0,0,0,14.18,0,0,0,0,0,0,0,0,0,77,44,0,0,0,0,0,0,0,0,0,0,0,0,0,0,0,0,0,0,0,0,0,0,0,0,0,0,0,0,0,0,0,0,0,0,0,0,0,0,0,0,0,0,0,0,0,0,0,0,0,0,0,0,0,0,0,13,-0.1009532,0,18.39052,1.028487,0.01876305,6.905857,1.830285,2,20.04448
111.008,31.68993,2.306098,18.70008,-26.51962,1.465836,-11.72383,90,90,0.3090458,6.387217,42.25324,0.1942084,121.6024,1.722701,-1.149896,0.2750341,0.2462109,-7.804112,-36.52203,-24.85295,11.59605,-37.54388,65.09804,1.11,1089.5,37,23,0,31.76471,31.37255,0.6231744,14.71902,0.14,6.952227,184.1154,343.6,4.521759,5.570732,710,73,4256,0.97,1.390312,1.015625,1.395192,1.039063,0,0,0,0,0,0,0,0,0,0,0,0,14.18,0,0,0,0,0,0,0,0,0,77,44,0,0,0,0,0,0,0,0,0,0,0,0,0,0,0,0,0,0,0,0,0,0,0,0,0,0,0,0,0,0,0,0,0,0,0,0,0,0,0,0,0,0,0,0,0,0,0,0,0,0,0,0,0,0,0,13,-0.05993211,0,20.15952,1.054819,0.01907744,6.846289,1.859982,2,20.04448
112.008,31.68993,2.306098,18.70008,17.36107,-3.669006,4.511719,90,90,0.3090458,6.387217,42.25324,0.1942084,121.6024,1.722701,0.8025584,-1.116765,-0.09227789,-3.593411,-41.11964,-28.56376,20.06533,-40.12524,65.09804,1.11,1089.5,37,23,0,31.76471,31.37255,0.6231744,14.71902,0.14,6.952227,184.1154,343.7,4.521759,5.570732,710,73,4256,0.97,1.390312,1.015625,1.395192,1.039063,0,0,0,0,0,0,0,0,0,0,0,0,14.18,0,0,0,0,0,0,0,0,0,77,44,0,0,0,0,0,0,0,0,0,0,0,0,0,0,0,0,0,0,0,0,0,0,0,0,0,0,0,0,0,0,0,0,0,0,0,0,0,0,0,0,0,0,0,0,0,0,0,0,0,0,0,0,0,0,0,13,-0.05993211,0,20.15952,1.054819,0.01907744,6.846289,1.859982,2,20.04448
113.008,32.3113,2.364557,18.70322,4.547576,-0.9941406,1.209473,90,90,0.1534236,6.448509,42.25324,0.1973465,122.2872,1.766371,0.04758644,0.1061156,0.2107511,-2.648375,-41.166,-27.12735,22.61742,-36.95102,93.33334,1.12,1106.5,37,23,0,35.68628,35.29412,0.9358705,15.08336,0.15,7.12846,182.6759,343.8,4.547221,5.570529,710,73,4256,0.97,1.31028,0.875,1.291248,0.8515625,0,0,0,0,0,0,0,0,0,0,0,0,14.18,0,0,0,0,0,0,0,0,0,77,44,0,0,0,0,0,0,0,0,0,0,0,0,0,0,0,0,0,0,0,0,0,0,0,0,0,0,0,0,0,0,0,0,0,0,0,0,0,0,0,0,0,0,0,0,0,0,0,0,0,0,0,0,0,0,0,13.1,-0.01284212,0,18.99906,1.08031,0.01938571,6.792759,1.895662,2,20.04448
114.008,32.3113,2.364557,18.70322,-151.0905,-164.4581,87.09344,90,90,0.1534236,6.448509,42.25324,0.1973465,122.2872,1.766371,-3.712998,-3.689352,3.869258,-6.823557,-57.57203,-32.45795,25.93752,-29.77934,93.33334,1.12,1106.5,37,23,0,35.68628,35.29412,0.9358705,15.08336,0.15,7.12846,182.6759,343.8,4.547221,5.570529,710,73,4256,0.97,1.31028,0.875,1.291248,0.8515625,0,0,0,0,0,0,0,0,0,0,0,0,14.18,0,0,0,0,0,0,0,0,0,77,44,0,0,0,0,0,0,0,0,0,0,0,0,0,0,0,0,0,0,0,0,0,0,0,0,0,0,0,0,0,0,0,0,0,0,0,0,0,0,0,0,0,0,0,0,0,0,0,0,0,0,0,0,0,0,0,13.1,-0.01284212,0,18.99906,1.08031,0.01938571,6.792759,1.895662,2,20.04448
115.008,33.55404,3.338243,18.70851,-14.1172,-12.6463,-1.288696,90,90,0.2088251,8.958175,42.25324,0.2026411,166.2489,2.493734,-0.6925018,-0.5478884,-0.1809077,-2.920206,-41.02184,-22.40389,24.95894,-39.31445,63.13726,1.11,1124.5,37,23,0,25.4902,25.09804,0.9073837,15.19187,0.14,10.06385,182.177,343.8,6.181927,5.570678,710,73,4256,0.97,1.645048,1.429688,1.667984,1.480469,0,0,0,0,0,0,0,0,0,0,0,0,14.18,0,0,0,0,0,0,0,0,0,77,44,0,0,0,0,0,0,0,0,0,0,0,0,0,0,0,0,0,0,0,0,0,0,0,0,0,0,0,0,0,0,0,0,0,0,0,0,0,0,0,0,0,0,0,0,0,0,0,0,0,0,0,0,0,0,0,13.1,0.04357246,0,23.8532,1.11233,0.0199058,6.774211,1.924786,2,20.04448
116.008,33.55404,3.338243,18.70851,34.7397,7.478622,2.895737,90,90,0.2088251,8.958175,42.25324,0.2026411,166.2489,2.493734,1.31479,-0.2027572,-0.1004729,-0.004039581,-42.12159,-24.22304,25.66242,-37.21652,63.13726,1.11,1124.5,37,23,0,25.4902,25.09804,0.9073837,15.19187,0.14,10.06385,182.177,343.7,6.181927,5.570678,710,73,4256,0.97,1.645048,1.429688,1.667984,1.480469,0,0,0,0,0,0,0,0,0,0,0,0,14.18,0,0,0,0,0,0,0,0,0,77,44,0,0,0,0,0,0,0,0,0,0,0,0,0,0,0,0,0,0,0,0,0,0,0,0,0,0,0,0,0,0,0,0,0,0,0,0,0,0,0,0,0,0,0,0,0,0,0,0,0,0,0,0,0,0,0,13.1,0.04357246,0,23.8532,1.11233,0.0199058,6.774211,1.924786,2,20.04448
117.008,33.55404,1.733399,18.71077,-4.130722,-7.269104,4.889771,90,90,0.1301248,4.733662,42.25324,0.2048943,86.32556,1.294883,-0.7392652,0.3891876,-0.1450482,-4.267421,-41.00229,-25.08976,21.05507,-36.59691,35.29412,1.04,1105,37,23,0,19.60784,15.29412,0.6853534,13.98699,0.07,5.225701,179.9862,343.7,3.209996,5.570186,710,73,4256,0.97,4.061136,2.8125,2.858216,2.449219,0,0,0,0,0,0,0,0,0,0,0,0,14.18,0,0,0,0,0,0,0,0,0,77,44,0,0,0,0,0,0,0,0,0,0,0,0,0,0,0,0,0,0,0,0,0,0,0,0,0,0,0,0,0,0,0,0,0,0,0,0,0,0,0,0,0,0,0,0,0,0,0,0,0,0,0,0,0,0,0,14.2,0.09048083,0,58.88647,1.138389,0.02012714,6.692744,1.955261,2,20.04448
118.008,33.55404,1.733399,18.71077,-8.948593,6.733994,-4.656708,90,90,0.1301248,4.733662,42.25324,0.2048943,86.32556,1.294883,0.3717349,0.8710057,-0.4019531,-4.436014,-40.28205,-24.82766,20.48578,-37.41945,35.29412,1.04,1105,37,23,0,19.60784,15.29412,0.6853534,13.98699,0.07,5.225701,179.9862,343.8,3.209996,5.570186,710,73,4256,0.97,4.061136,2.8125,2.858216,2.449219,0,0,0,0,0,0,0,0,0,0,0,0,14.18,0,0,0,0,0,0,0,0,0,77,44,0,0,0,0,0,0,0,0,0,0,0,0,0,0,0,0,0,0,0,0,0,0,0,0,0,0,0,0,0,0,0,0,0,0,0,0,0,0,0,0,0,0,0,0,0,0,0,0,0,0,0,0,0,0,0,14.2,0.09048083,0,58.88647,1.138389,0.02012714,6.692744,1.955261,2,20.04448
119.009,32.3113,0.7427475,18.7118,3.626816,-10.49153,-2.885147,90,90,-0.1495896,2.10353,42.25324,0.2059295,38.41249,0.5548471,-1.666478,0.7139904,1.016872,-5.325099,-42.27701,-26.57236,19.34157,-34.2029,0,1,1065.5,37,23,0,15.29412,14.90196,0.5346109,12.96828,0.03,2.239171,176.7315,343.8,1.42836,5.569298,710,73,4256,0.97,15.9903,3.683594,15.9903,3.667969,0,0,0,0,0,0,0,0,0,0,0,0,14.18,0,0,0,0,0,0,0,0,0,77,44,0,0,0,0,0,0,0,0,0,0,0,0,0,0,0,0,0,0,0,0,0,0,0,0,0,0,0,0,0,0,0,0,0,0,0,0,0,0,0,0,0,0,0,0,0,0,0,0,0,0,0,0,0,0,0,14.2,0.09979036,0,231.8593,1.165211,0.02022883,6.571719,1.985054,2,20.04448
120.009,32.3113,0.7427475,18.7118,-9.969589,12.04385,-12.38611,90,90,-0.1495896,2.10353,42.25324,0.2059295,38.41249,0.5548471,0.8257398,0.8058652,-0.4792381,-3.461981,-41.87052,-25.97159,20.31682,-34.8326,0,1,1065.5,37,23,0,15.29412,14.90196,0.5346109,12.96828,0.03,2.239171,176.7315,343.9,1.42836,5.569298,710,73,4256,0.97,15.9903,3.683594,15.9903,3.667969,0,0,0,0,0,0,0,0,0,0,0,0,14.18,0,0,0,0,0,0,0,0,0,77,44,0,0,0,0,0,0,0,0,0,0,0,0,0,0,0,0,0,0,0,0,0,0,0,0,0,0,0,0,0,0,0,0,0,0,0,0,0,0,0,0,0,0,0,0,0,0,0,0,0,0,0,0,0,0,0,14.2,0.09979036,0,231.8593,1.165211,0.02022883,6.571719,1.985054,2,20.04448
121.011,32.3113,0.7427475,18.7118,-42.02287,-36.01622,21.55614,90,90,-0.1495896,2.10353,42.25324,0.2059295,38.41249,0.5548471,2.185837,0.8505969,-2.572897,7.110248,-28.93672,-8.280899,24.82952,-48.89534,0,1,1065.5,37,23,0,15.29412,14.90196,0.5346109,12.96828,0.03,2.239171,176.7315,343.9,1.42836,5.569298,710,73,4256,0.97,15.9903,3.683594,15.9903,3.667969,0,0,0,0,0,0,0,0,0,0,0,0,14.18,0,0,0,0,0,0,0,0,0,77,44,0,0,0,0,0,0,0,0,0,0,0,0,0,0,0,0,0,0,0,0,0,0,0,0,0,0,0,0,0,0,0,0,0,0,0,0,0,0,0,0,0,0,0,0,0,0,0,0,0,0,0,0,0,0,0,14.2,0.09979036,0,231.8593,1.165211,0.02022883,6.571719,1.985054,2,20.04448
122.009,31.06856,0,18.7118,-12.70949,-5.590912,-4.601746,90,91,-0.3059039,0,42.25324,0.2059295,0,0,0.1714855,-0.0430263,0.6899054,7.538456,-33.71257,-15.19905,29.90884,-47.74942,0,1.02,1151,39,23,0,15.29412,14.90196,1.231467,14.28908,0.05,0,173.0657,343.9,0,5.568199,730,73,4256,0.97,15.9903,3.9375,15.9903,3.976563,0,0,0,0,0,0,0,0,0,0,0,0,14.64,0,0,0,0,0,0,0,0,0,80,44,0,0,0,0,0,0,0,0,0,0,0,0,0,0,0,0,0,0,0,0,0,0,0,0,0,0,0,0,0,0,0,0,0,0,0,0,0,0,0,0,0,0,0,0,0,0,0,0,0,0,0,0,0,0,0,14.7,0.08422503,0,231.8593,1.189892,0.02022883,6.435406,2.039114,2,20.04448
123.009,31.06856,0,18.7118,0.8219299,-11.04712,8.00145,90,91,-0.3059039,0,42.25324,0.2059295,0,0,-0.9416005,-0.846302,1.503793,2.385244,-39.588,-17.87747,28.61535,-43.96367,0,1.02,1151,39,23,0,15.29412,14.90196,1.231467,14.28908,0.05,0,173.0657,344,0,5.568199,730,73,4256,0.97,15.9903,3.9375,15.9903,3.976563,0,0,0,0,0,0,0,0,0,0,0,0,14.64,0,0,0,0,0,0,0,0,0,80,44,0,0,0,0,0,0,0,0,0,0,0,0,0,0,0,0,0,0,0,0,0,0,0,0,0,0,0,0,0,0,0,0,0,0,0,0,0,0,0,0,0,0,0,0,0,0,0,0,0,0,0,0,0,0,0,14.7,0.08422503,0,231.8593,1.189892,0.02022883,6.435406,2.039114,2,20.04448
124.009,26.71896,0,18.7118,1.679337,-13.36597,9.252533,90,91,-0.4564667,0,42.25324,0.2059295,0,0,-1.010103,-0.767982,0.5645293,-1.786924,-38.22589,-17.17499,24.02064,-43.76822,0,1.06,1091.5,39,23,0,15.29412,14.90196,1.354968,13.99158,0.09,0,167.6157,344,0,5.566475,730,73,4256,0.97,15.9903,3.722656,15.9903,3.929688,0,0,0,0,0,0,0,0,0,0,0,0,14.64,0,0,0,0,0,0,0,0,0,80,44,0,0,0,0,0,0,0,0,0,0,0,0,0,0,0,0,0,0,0,0,0,0,0,0,0,0,0,0,0,0,0,0,0,0,0,0,0,0,0,0,0,0,0,0,0,0,0,0,0,0,0,0,0,0,0,14.7,0.02419454,0,231.8593,1.228582,0.02022883,6.232749,2.068605,2,20.04448
125.009,19.26251,0,18.7118,-3.871323,1.672943,-2.57489,90,91,-1.242523,0,42.25324,0.2059295,0,0,-0.01234339,0.5828444,-0.08220182,-3.838589,-37.14585,-16.6972,21.79561,-44.91716,0,1.01,1090.5,39,23,0,15.29412,14.90196,0.709112,13.31939,0.04,0,165.5633,344,0,5.565797,730,73,4256,0.97,5.103992,3.019531,7.6372,3.347656,0,0,0,0,0,0,0,0,0,0,0,0,14.64,0,0,0,0,0,0,0,0,0,80,44,0,0,0,0,0,0,0,0,0,0,0,0,0,0,0,0,0,0,0,0,0,0,0,0,0,0,0,0,0,0,0,0,0,0,0,0,0,0,0,0,0,0,0,0,0,0,0,0,0,0,0,0,0,0,0,13.3,-0.1799988,0,74.00788,1.243811,0.02022883,6.156434,2.09924,2,20.04448
126.010,19.26251,0,18.7118,9.436325,7.637069,7.923264,90,91,-1.242523,0,42.25324,0.2059295,0,0,2.237375,0.6593706,-1.587491,-0.5954668,-38.20768,-11.4194,24.23465,-48.92693,0,1.01,1090.5,39,23,0,15.29412,14.90196,0.709112,13.31939,0.04,0,165.5633,343.9,0,5.565797,730,73,4256,0.97,5.103992,3.019531,7.6372,3.347656,0,0,0,0,0,0,0,0,0,0,0,0,14.64,0,0,0,0,0,0,0,0,0,80,44,0,0,0,0,0,0,0,0,0,0,0,0,0,0,0,0,0,0,0,0,0,0,0,0,0,0,0,0,0,0,0,0,0,0,0,0,0,0,0,0,0,0,0,0,0,0,0,0,0,0,0,0,0,0,0,13.3,-0.1799988,0,74.00788,1.243811,0.02022883,6.156434,2.09924,2,20.04448
127.010,8.699197,0,18.7118,2.765274,-23.76302,-23.3326,90,91,-2.16991,0,42.25324,0.2059295,0,0,0.2364963,-0.2857309,0.3755178,-4.283987,-43.43393,-9.526649,29.04893,-50.77855,29.80392,1,889.5,39,23,0,15.29412,15.29412,0.5095729,10.7568,0.03,0,164.5736,344,0,5.565464,730,73,4256,0.97,2.730848,2.300781,2.795752,2.40625,0,0,0,0,0,0,0,0,0,0,0,0,14.64,0,0,0,0,0,0,0,0,0,80,44,0,0,0,0,0,0,0,0,0,0,0,0,0,0,0,0,0,0,0,0,0,0,0,0,0,0,0,0,0,0,0,0,0,0,0,0,0,0,0,0,0,0,0,0,0,0,0,0,0,0,0,0,0,0,0,13.3,-0.4516191,0,39.5973,1.251291,0.02022883,6.119631,2.130246,2,20.04448
128.010,8.699197,0,18.7118,-16.81653,9.477492,-5.822677,90,91,-2.16991,0,42.25324,0.2059295,0,0,0.8633992,1.667324,0.6732019,-4.382123,-44.6114,-13.24228,31.70966,-42.60478,29.80392,1,889.5,39,23,0,15.29412,15.29412,0.5095729,10.7568,0.03,0,164.5736,344,0,5.565464,730,73,4256,0.97,2.730848,2.300781,2.795752,2.40625,0,0,0,0,0,0,0,0,0,0,0,0,14.64,0,0,0,0,0,0,0,0,0,80,44,0,0,0,0,0,0,0,0,0,0,0,0,0,0,0,0,0,0,0,0,0,0,0,0,0,0,0,0,0,0,0,0,0,0,0,0,0,0,0,0,0,0,0,0,0,0,0,0,0,0,0,0,0,0,0,13.3,-0.4516191,0,39.5973,1.251291,0.02022883,6.119631,2.130246,2,20.04448
129.010,4.97097,1.194227,18.71338,47.24066,41.58301,-0.3274994,90,91,-1.700275,2.977029,42.25324,0.207505,401.45,0.8921112,1.294758,-0.4478281,-1.789631,3.284179,-31.6099,-20.57147,27.63102,-45.24619,88.62745,1.11,1210.5,38,23,0,43.92157,43.92157,1.272683,16.24894,0.14,3.600252,165.3152,344,14.92783,5.565758,730,73,4256,0.97,1.060424,0.2070313,1.0858,0.2851563,0,0,0,0,0,0,0,0,0,0,0,0,14.64,0,0,0,0,0,0,0,0,0,80,44,0,0,0,0,0,0,0,0,0,0,0,0,0,0,0,0,0,0,0,0,0,0,0,0,0,0,0,0,0,0,0,0,0,0,0,0,0,0,0,0,0,0,0,0,0,0,0,0,0,0,0,0,0,0,0,13.4,-0.5930307,0,15.37615,1.255208,0.02038359,6.147206,2.165217,2,20.04448
130.010,4.97097,1.194227,18.71338,-7.863358,-14.81497,-0.8306274,90,91,-1.700275,2.977029,42.25324,0.207505,401.45,0.8921112,0.4564081,-0.7072302,-0.2848478,-2.075732,-20.43508,-26.38509,27.70032,-45.59187,88.62745,1.11,1210.5,38,23,0,43.92157,43.92157,1.272683,16.24894,0.14,3.600252,165.3152,343.9,14.92783,5.565758,730,73,4256,0.97,1.060424,0.2070313,1.0858,0.2851563,0,0,0,0,0,0,0,0,0,0,0,0,14.64,0,0,0,0,0,0,0,0,0,80,44,0,0,0,0,0,0,0,0,0,0,0,0,0,0,0,0,0,0,0,0,0,0,0,0,0,0,0,0,0,0,0,0,0,0,0,0,0,0,0,0,0,0,0,0,0,0,0,0,0,0,0,0,0,0,0,13.4,-0.5930307,0,15.37615,1.255208,0.02038359,6.147206,2.165217,2,20.04448
131.010,11.18468,6.518847,18.72361,-20.45042,0.1621552,-2.963943,90,91,0.1879812,12.61381,42.25324,0.2177397,973.9415,4.869708,-1.341983,-0.345718,1.09015,-2.000341,-28.38296,-29.12483,25.82696,-44.64473,90.98039,1.44,1559.5,38,23,0,44.31372,44.70588,1.711185,27.24449,0.47,19.65245,172.0285,343.9,36.21579,5.568334,730,73,4256,0.97,1.376648,1.019531,1.381528,1.023438,0,0,0,0,0,0,0,0,0,0,0,0,14.64,0,0,0,0,0,0,0,0,0,80,44,0,0,0,0,0,0,0,0,0,0,0,0,0,0,0,0,0,0,0,0,0,0,0,0,0,0,0,0,0,0,0,0,0,0,0,0,0,0,0,0,0,0,0,0,0,0,0,0,0,0,0,0,0,0,0,13.4,-0.475832,0,19.9614,1.265719,0.02138897,6.396839,2.194678,2,20.04448
132.010,11.18468,6.518847,18.72361,7.412582,-18.27527,-20.9912,90,91,0.1879812,12.61381,42.25324,0.2177397,973.9415,4.869708,-1.690172,-1.064215,1.134086,-5.751499,-39.71322,-25.42546,19.15061,-36.58162,90.98039,1.44,1559.5,38,23,0,44.31372,44.70588,1.711185,27.24449,0.47,19.65245,172.0285,344,36.21579,5.568334,730,73,4256,0.97,1.376648,1.019531,1.381528,1.023438,0,0,0,0,0,0,0,0,0,0,0,0,14.64,0,0,0,0,0,0,0,0,0,80,44,0,0,0,0,0,0,0,0,0,0,0,0,0,0,0,0,0,0,0,0,0,0,0,0,0,0,0,0,0,0,0,0,0,0,0,0,0,0,0,0,0,0,0,0,0,0,0,0,0,0,0,0,0,0,0,13.4,-0.475832,0,19.9614,1.265719,0.02138897,6.396839,2.194678,2,20.04448
133.010,18.01976,11.33072,18.73863,-3.367386,-8.11882,31.18191,90,91,1.523128,15.66981,42.25324,0.2327584,1050.737,8.46427,0.3046947,-2.40721,2.771062,-1.04113,-58.45494,-36.21296,22.02931,-21.71942,68.62745,1.81,2182,38,23,0,45.88235,46.66667,2.248969,47.91418,0.84,34.15886,181.844,344,39.07141,5.572165,730,73,4256,0.97,1.381528,1.050781,1.41032,1.074219,0,0,0,0,0,0,0,0,0,0,0,0,14.64,0,0,0,0,0,0,0,0,0,80,44,0,0,0,0,0,0,0,0,0,0,0,0,0,0,0,0,0,0,0,0,0,0,0,0,0,0,0,0,0,0,0,0,0,0,0,0,0,0,0,0,0,0,0,0,0,0,0,0,0,0,0,0,0,0,0,13,-0.3190898,0,20.03216,1.279989,0.02286428,6.761825,2.226229,2,20.04448
134.012,18.01976,11.33072,18.73863,-14.9711,-22.81876,-16.63535,90,91,1.523128,15.66981,42.25324,0.2327584,1050.737,8.46427,-1.631839,0.8928415,-0.3561972,-11.59054,-38.88057,-30.57823,-4.099331,-25.0519,68.62745,1.81,2182,38,23,0,45.88235,46.66667,2.248969,47.91418,0.84,34.15886,181.844,344,39.07141,5.572165,730,73,4256,0.97,1.381528,1.050781,1.41032,1.074219,0,0,0,0,0,0,0,0,0,0,0,0,14.64,0,0,0,0,0,0,0,0,0,80,44,0,0,0,0,0,0,0,0,0,0,0,0,0,0,0,0,0,0,0,0,0,0,0,0,0,0,0,0,0,0,0,0,0,0,0,0,0,0,0,0,0,0,0,0,0,0,0,0,0,0,0,0,0,0,0,13,-0.3190898,0,20.03216,1.279989,0.02286428,6.761825,2.226229,2,20.04448
135.010,23.6121,4.981493,18.74567,7.425689,-13.6882,7.964279,90,91,1.52544,9.316475,42.25324,0.2397949,352.5418,3.721274,0.1004185,-0.2100694,-0.03415671,-11.22366,-33.58078,-30.88154,-7.059013,-22.72142,85.88235,1.4,1613.5,38,23,0,43.92157,44.70588,0.9368416,27.40487,0.43,15.01778,184.4733,343.9,13.10918,5.57337,730,73,4256,0.97,1.245376,0.734375,1.248792,0.7304688,0,0,0,0,0,0,0,0,0,0,0,0,14.64,0,0,0,0,0,0,0,0,0,80,44,0,0,0,0,0,0,0,0,0,0,0,0,0,0,0,0,0,0,0,0,0,0,0,0,0,0,0,0,0,0,0,0,0,0,0,0,0,0,0,0,0,0,0,0,0,0,0,0,0,0,0,0,0,0,0,13,-0.2125091,0,18.05795,1.29989,0.02355549,6.859596,2.255686,2,20.04448
136.010,23.6121,4.981493,18.74567,-12.02284,6.438766,-0.7706909,90,91,1.52544,9.316475,42.25324,0.2397949,352.5418,3.721274,0.7220104,0.2240274,-1.156005,-8.936085,-33.77648,-32.31556,-5.906796,-21.48286,85.88235,1.4,1613.5,38,23,0,43.92157,44.70588,0.9368416,27.40487,0.43,15.01778,184.4733,343.9,13.10918,5.57337,730,73,4256,0.97,1.245376,0.734375,1.248792,0.7304688,0,0,0,0,0,0,0,0,0,0,0,0,14.64,0,0,0,0,0,0,0,0,0,80,44,0,0,0,0,0,0,0,0,0,0,0,0,0,0,0,0,0,0,0,0,0,0,0,0,0,0,0,0,0,0,0,0,0,0,0,0,0,0,0,0,0,0,0,0,0,0,0,0,0,0,0,0,0,0,0,13,-0.2125091,0,18.05795,1.29989,0.02355549,6.859596,2.255686,2,20.04448
137.010,27.34033,6.688963,18.75451,-9.968704,0.8701935,-1.728149,90,91,1.131459,10.92535,42.25324,0.2486344,408.8281,4.996788,-0.04008307,0.2412993,-0.2141388,-7.181343,-34.70918,-33.20295,-5.421772,-21.21638,74.90196,1.48,1847.5,39,23,0,40.78431,40.39216,1.359393,33.17241,0.51,20.16531,188.1266,344,15.20218,5.575029,730,73,4256,0.97,2.838696,2.414063,2.413648,2.183594,0,0,0,0,0,0,0,0,0,0,0,0,14.64,0,0,0,0,0,0,0,0,0,80,44,0,0,0,0,0,0,0,0,0,0,0,0,0,0,0,0,0,0,0,0,0,0,0,0,0,0,0,0,0,0,0,0,0,0,0,0,0,0,0,0,0,0,0,0,0,0,0,0,0,0,0,0,0,0,0,13,-0.118823,0,41.16109,1.321633,0.02442381,6.995445,2.291108,2,20.04448
138.010,27.34033,6.688963,18.75451,-1.353134,-0.4735412,2.361649,90,91,1.131459,10.92535,42.25324,0.2486344,408.8281,4.996788,-0.3895211,-0.03794914,0.2269967,-9.509593,-34.86506,-31.36968,-8.445019,-21.31747,74.90196,1.48,1847.5,39,23,0,40.78431,40.39216,1.359393,33.17241,0.51,20.16531,188.1266,344,15.20218,5.575029,730,73,4256,0.97,2.838696,2.414063,2.413648,2.183594,0,0,0,0,0,0,0,0,0,0,0,0,14.64,0,0,0,0,0,0,0,0,0,80,44,0,0,0,0,0,0,0,0,0,0,0,0,0,0,0,0,0,0,0,0,0,0,0,0,0,0,0,0,0,0,0,0,0,0,0,0,0,0,0,0,0,0,0,0,0,0,0,0,0,0,0,0,0,0,0,13,-0.118823,0,41.16109,1.321633,0.02442381,6.995445,2.291108,2,20.04448
139.010,29.82582,3.580052,18.76022,-2.397018,-2.69281,-5.941559,90,91,0.729841,7.975747,42.25324,0.2543436,200.5778,2.67437,0.7301692,-0.2085808,-1.377115,-7.123589,-31.55684,-32.31868,-5.372139,-22.2991,75.29412,1.22,1354.5,39,23,0,37.64706,38.03922,0.730911,19.98371,0.25,10.79283,188.4069,344,7.458437,5.575463,730,73,4256,0.97,1.25904,0.7578125,1.26148,0.765625,0,0,0,0,0,0,0,0,0,0,0,0,14.64,0,0,0,0,0,0,0,0,0,80,44,0,0,0,0,0,0,0,0,0,0,0,0,0,0,0,0,0,0,0,0,0,0,0,0,0,0,0,0,0,0,0,0,0,0,0,0,0,0,0,0,0,0,0,0,0,0,0,0,0,0,0,0,0,0,0,13,-0.03662294,0,18.25608,1.349969,0.02498463,7.005867,2.322248,2,20.04448
140.010,29.82582,3.580052,18.76022,2.954819,-9.482605,-6.442459,90,91,0.729841,7.975747,42.25324,0.2543436,200.5778,2.67437,-0.1395824,0.3622161,1.140752,-8.0405,-32.24836,-32.4374,-7.484367,-20.20766,75.29412,1.22,1354.5,39,23,0,37.64706,38.03922,0.730911,19.98371,0.25,10.79283,188.4069,344,7.458437,5.575463,730,73,4256,0.97,1.25904,0.7578125,1.26148,0.765625,0,0,0,0,0,0,0,0,0,0,0,0,14.64,0,0,0,0,0,0,0,0,0,80,44,0,0,0,0,0,0,0,0,0,0,0,0,0,0,0,0,0,0,0,0,0,0,0,0,0,0,0,0,0,0,0,0,0,0,0,0,0,0,0,0,0,0,0,0,0,0,0,0,0,0,0,0,0,0,0,13,-0.03662294,0,18.25608,1.349969,0.02498463,7.005867,2.322248,2,20.04448
141.012,31.68993,3.396047,18.76491,-5.614304,-7.597062,-24.13747,90,91,0.4853399,9.207454,42.25324,0.2590411,179.0763,2.536914,-0.5447736,0.8776205,0.9374024,-8.967045,-34.08256,-31.28495,-8.038929,-19.98404,93.33334,1.22,1113,39,23,0,36.86274,34.5098,0.9407763,16.42072,0.25,10.23811,188.2116,344,6.658911,5.575685,750,73,4256,0.97,1.63968,1.429688,1.58356,1.382813,0,0,0,0,0,0,0,0,0,0,0,0,12.96,0,0,0,0,0,0,0,0,0,94,42,0,0,0,0,0,0,0,0,0,0,0,0,0,0,0,0,0,0,0,0,0,0,0,0,0,0,0,0,0,0,0,0,0,0,0,0,0,0,0,0,0,0,0,0,0,0,0,0,0,0,0,0,0,0,0,13,0.03942574,0,23.77536,1.376329,0.02544608,6.998604,2.36004,2,20.04448
142.010,31.68993,3.396047,18.76491,-7.971435,1.049179,5.909515,90,91,0.4853399,9.207454,42.25324,0.2590411,179.0763,2.536914,0.8795867,1.107935,0.5266528,-8.200943,-33.42306,-32.67725,-8.305977,-20.21022,93.33334,1.22,1113,39,23,0,36.86274,34.5098,0.9407763,16.42072,0.25,10.23811,188.2116,344,6.658911,5.575685,750,73,4256,0.97,1.63968,1.429688,1.58356,1.382813,0,0,0,0,0,0,0,0,0,0,0,0,12.96,0,0,0,0,0,0,0,0,0,94,42,0,0,0,0,0,0,0,0,0,0,0,0,0,0,0,0,0,0,0,0,0,0,0,0,0,0,0,0,0,0,0,0,0,0,0,0,0,0,0,0,0,0,0,0,0,0,0,0,0,0,0,0,0,0,0,13,0.03942574,0,23.77536,1.376329,0.02544608,6.998604,2.36004,2,20.04448
143.012,32.3113,3.177068,18.77034,0.8688812,-1.445679,-7.119049,90,91,0.284711,8.64482,42.25324,0.2644703,164.3076,2.373333,-0.6950544,0.4353465,0.5255566,-6.45082,-35.73803,-33.95862,-6.723015,-17.70775,60,1.12,1109,39,23,0,28.23529,28.23529,0.8640668,15.02058,0.15,9.57795,187.656,344,6.109741,5.575827,750,73,4256,0.97,1.684576,1.484375,1.685552,1.507813,0,0,0,0,0,0,0,0,0,0,0,0,12.96,0,0,0,0,0,0,0,0,0,94,42,0,0,0,0,0,0,0,0,0,0,0,0,0,0,0,0,0,0,0,0,0,0,0,0,0,0,0,0,0,0,0,0,0,0,0,0,0,0,0,0,0,0,0,0,0,0,0,0,0,0,0,0,0,0,0,13,0.1116126,0,24.42635,1.409335,0.0259794,6.977945,2.389187,2,20.04448
144.011,32.3113,3.177068,18.77034,16.41597,2.822922,-7.788147,90,91,0.284711,8.64482,42.25324,0.2644703,164.3076,2.373333,1.646423,1.078912,-1.329558,-7.973916,-34.70285,-32.74991,-11.18652,-16.38147,60,1.12,1109,39,23,0,28.23529,28.23529,0.8640668,15.02058,0.15,9.57795,187.656,344.1,6.109741,5.575827,750,73,4256,0.97,1.684576,1.484375,1.685552,1.507813,0,0,0,0,0,0,0,0,0,0,0,0,12.96,0,0,0,0,0,0,0,0,0,94,42,0,0,0,0,0,0,0,0,0,0,0,0,0,0,0,0,0,0,0,0,0,0,0,0,0,0,0,0,0,0,0,0,0,0,0,0,0,0,0,0,0,0,0,0,0,0,0,0,0,0,0,0,0,0,0,13,0.1116126,0,24.42635,1.409335,0.0259794,6.977945,2.389187,2,20.04448
145.011,32.93267,2.096841,18.77307,22.10568,-1.665085,28.90053,90,91,0.1409512,5.664654,42.25324,0.2671963,106.3958,1.566382,-1.692422,-1.085628,0.6356884,-10.25947,-37.33526,-31.19252,-15.73782,-15.19881,58.03922,1.1,1117,35,23,0,27.45098,27.45098,0.8902983,14.85878,0.13,6.321376,186.2202,344,3.956301,5.5755,750,73,4256,0.97,1.594296,1.355469,1.592832,1.375,0,0,0,0,0,0,0,0,0,0,0,0,12.96,0,0,0,0,0,0,0,0,0,94,42,0,0,0,0,0,0,0,0,0,0,0,0,0,0,0,0,0,0,0,0,0,0,0,0,0,0,0,0,0,0,0,0,0,0,0,0,0,0,0,0,0,0,0,0,0,0,0,0,0,0,0,0,0,0,0,13,0.3161206,0,23.11729,1.434841,0.02624718,6.924553,2.424862,2,20.04448
146.011,32.93267,2.096841,18.77307,-9.683243,-7.945175,1.423233,90,91,0.1409512,5.664654,42.25324,0.2671963,106.3958,1.566382,-1.459628,0.3083309,0.948303,-9.274027,-35.30266,-32.8155,-12.74351,-14.98299,58.03922,1.1,1117,35,23,0,27.45098,27.45098,0.8902983,14.85878,0.13,6.321376,186.2202,344,3.956301,5.5755,750,73,4256,0.97,1.594296,1.355469,1.592832,1.375,0,0,0,0,0,0,0,0,0,0,0,0,12.96,0,0,0,0,0,0,0,0,0,94,42,0,0,0,0,0,0,0,0,0,0,0,0,0,0,0,0,0,0,0,0,0,0,0,0,0,0,0,0,0,0,0,0,0,0,0,0,0,0,0,0,0,0,0,0,0,0,0,0,0,0,0,0,0,0,0,13,0.3161206,0,23.11729,1.434841,0.02624718,6.924553,2.424862,2,20.04448
147.011,32.93267,1.62741,18.77565,13.16832,-14.10945,5.996063,90,91,0.08016936,4.412278,42.25324,0.269776,82.57637,1.215708,-0.9191425,-0.6951072,0.8543789,-4.860649,-42.69371,-35.15417,-12.57502,-11.79526,48.23529,1.07,1113,35,23,0,21.56863,21.17647,0.7001223,14.58873,0.1,4.906176,183.9916,344,3.070583,5.574869,750,73,4256,0.97,2.053992,1.878906,1.999824,1.871094,0,0,0,0,0,0,0,0,0,0,0,0,12.96,0,0,0,0,0,0,0,0,0,94,42,0,0,0,0,0,0,0,0,0,0,0,0,0,0,0,0,0,0,0,0,0,0,0,0,0,0,0,0,0,0,0,0,0,0,0,0,0,0,0,0,0,0,0,0,0,0,0,0,0,0,0,0,0,0,0,13,0.5616285,0,29.78288,1.466241,0.02650059,6.841685,2.454295,2,20.04448
148.011,32.93267,1.62741,18.77565,8.533295,-15.83263,11.85925,90,91,0.08016936,4.412278,42.25324,0.269776,82.57637,1.215708,0.06222397,-1.482612,1.760328,-5.376214,-41.64284,-35.83021,-10.32354,-12.42255,48.23529,1.07,1113,35,23,0,21.56863,21.17647,0.7001223,14.58873,0.1,4.906176,183.9916,344,3.070583,5.574869,750,73,4256,0.97,2.053992,1.878906,1.999824,1.871094,0,0,0,0,0,0,0,0,0,0,0,0,12.96,0,0,0,0,0,0,0,0,0,94,42,0,0,0,0,0,0,0,0,0,0,0,0,0,0,0,0,0,0,0,0,0,0,0,0,0,0,0,0,0,0,0,0,0,0,0,0,0,0,0,0,0,0,0,0,0,0,0,0,0,0,0,0,0,0,0,13,0.5616285,0,29.78288,1.466241,0.02650059,6.841685,2.454295,2,20.04448
149.011,32.93267,1.603811,18.77778,-14.31013,-5.186141,4.44249,90,91,4.718448E-16,4.37384,42.25324,0.2719053,81.37894,1.198079,-0.7353419,0.1753052,0.1542432,-5.778514,-42.2501,-34.06164,-14.37143,-10.96446,65.09804,1.06,1106.5,35,23,0,27.84314,27.84314,0.8331913,14.36798,0.09,4.835032,182.2121,344,3.026057,5.574344,750,73,4256,0.97,1.667984,1.457031,1.658224,1.46875,0,0,0,0,0,0,0,0,0,0,0,0,12.96,0,0,0,0,0,0,0,0,0,94,42,0,0,0,0,0,0,0,0,0,0,0,0,0,0,0,0,0,0,0,0,0,0,0,0,0,0,0,0,0,0,0,0,0,0,0,0,0,0,0,0,0,0,0,0,0,0,0,0,0,0,0,0,0,0,0,13,0.6561756,0,24.18577,1.492246,0.02670976,6.775516,2.484751,2,20.04448
150.011,32.93267,2.200695,18.78078,1.422729,-6.902222,12.25563,90,91,4.718448E-16,5.931941,42.25324,0.2749084,111.6654,1.643963,-0.7140129,-0.5110071,0.6255996,-3.275596,-40.17144,-36.10085,-8.817654,-11.38106,57.2549,1.1,1119.5,35,23,0,25.88235,25.88235,0.8521031,15.08534,0.13,6.634466,180.9421,344,4.152252,5.57403,750,73,4256,0.97,1.75436,1.589844,1.719224,1.550781,0,0,0,0,0,0,0,0,0,0,0,0,12.96,0,0,0,0,0,0,0,0,0,94,42,0,0,0,0,0,0,0,0,0,0,0,0,0,0,0,0,0,0,0,0,0,0,0,0,0,0,0,0,0,0,0,0,0,0,0,0,0,0,0,0,0,0,0,0,0,0,0,0,0,0,0,0,0,0,0,13,0.5240322,0,25.43822,1.519317,0.02700475,6.728288,2.514304,2,20.04448
151.011,32.93267,2.200695,18.78078,9.328369,-1.830948,-2.774124,90,91,4.718448E-16,5.931941,42.25324,0.2749084,111.6654,1.643963,-0.1075245,0.1323039,0.5897186,-1.52708,-40.50077,-38.16436,-6.274578,-10.29121,57.2549,1.1,1119.5,35,23,0,25.88235,25.88235,0.8521031,15.08534,0.13,6.634466,180.9421,344,4.152252,5.57403,750,73,4256,0.97,1.75436,1.589844,1.719224,1.550781,0,0,0,0,0,0,0,0,0,0,0,0,12.96,0,0,0,0,0,0,0,0,0,94,42,0,0,0,0,0,0,0,0,0,0,0,0,0,0,0,0,0,0,0,0,0,0,0,0,0,0,0,0,0,0,0,0,0,0,0,0,0,0,0,0,0,0,0,0,0,0,0,0,0,0,0,0,0,0,0,13,0.5240322,0,25.43822,1.519317,0.02700475,6.728288,2.514304,2,20.04448
152.011,32.93267,1.312153,18.78251,6.318192,-0.7502289,2.875534,90,91,4.718448E-16,3.630946,42.25324,0.2766398,66.57991,0.9802042,0.1813409,0.2172059,0.1281916,-0.6614879,-39.74377,-38.72304,-4.824959,-10.27045,0,1.03,1090.5,34,22,0,15.29412,14.90196,0.5709515,13.75946,0.06,3.955765,179.023,343.9,2.475758,5.57339,750,73,4256,0.97,11.6959,3.503906,8.93772,3.464844,0,0,0,0,0,0,0,0,0,0,0,0,12.96,0,0,0,0,0,0,0,0,0,94,42,0,0,0,0,0,0,0,0,0,0,0,0,0,0,0,0,0,0,0,0,0,0,0,0,0,0,0,0,0,0,0,0,0,0,0,0,0,0,0,0,0,0,0,0,0,0,0,0,0,0,0,0,0,0,0,14.7,0.35155,0,169.5905,1.545275,0.02717483,6.656929,2.549742,2,20.04448
153.011,32.93267,1.312153,18.78251,8.613876,-20.55099,0.5193481,90,91,4.718448E-16,3.630946,42.25324,0.2766398,66.57991,0.9802042,-0.4603427,-0.3825477,1.008836,-0.9439066,-42.49403,-39.34658,-4.032341,-11.74484,0,1.03,1090.5,34,22,0,15.29412,14.90196,0.5709515,13.75946,0.06,3.955765,179.023,344,2.475758,5.57339,750,73,4256,0.97,11.6959,3.503906,8.93772,3.464844,0,0,0,0,0,0,0,0,0,0,0,0,12.96,0,0,0,0,0,0,0,0,0,94,42,0,0,0,0,0,0,0,0,0,0,0,0,0,0,0,0,0,0,0,0,0,0,0,0,0,0,0,0,0,0,0,0,0,0,0,0,0,0,0,0,0,0,0,0,0,0,0,0,0,0,0,0,0,0,0,14.7,0.35155,0,169.5905,1.545275,0.02717483,6.656929,2.549742,2,20.04448
154.011,31.06856,0,18.78251,6.460403,-3.841553,-0.1069031,90,91,-0.192953,0,42.25324,0.2766398,0,0,-0.3283399,-0.4954144,-0.5457041,-3.299918,-40.58223,-37.09202,-6.794971,-11.41078,0,1.01,1102.5,34,22,0,15.29412,14.90196,1.146081,13.68516,0.04,0,175.6145,344.1,0,5.572056,750,73,4256,0.97,15.9903,3.894531,15.9903,3.925781,0,0,0,0,0,0,0,0,0,0,0,0,12.96,0,0,0,0,0,0,0,0,0,94,42,0,0,0,0,0,0,0,0,0,0,0,0,0,0,0,0,0,0,0,0,0,0,0,0,0,0,0,0,0,0,0,0,0,0,0,0,0,0,0,0,0,0,0,0,0,0,0,0,0,0,0,0,0,0,0,14.7,0.1803537,0,231.8593,1.575267,0.02717483,6.530185,2.579527,2,20.04448
155.011,31.06856,0,18.78251,-0.3161621,-2.94812,5.839645,90,91,-0.192953,0,42.25324,0.2766398,0,0,-0.5987051,0.005748903,0.1670509,-2.216046,-41.45946,-38.8732,-5.209175,-12.31154,0,1.01,1102.5,34,22,0,15.29412,14.90196,1.146081,13.68516,0.04,0,175.6145,344.1,0,5.572056,750,73,4256,0.97,15.9903,3.894531,15.9903,3.925781,0,0,0,0,0,0,0,0,0,0,0,0,12.96,0,0,0,0,0,0,0,0,0,94,42,0,0,0,0,0,0,0,0,0,0,0,0,0,0,0,0,0,0,0,0,0,0,0,0,0,0,0,0,0,0,0,0,0,0,0,0,0,0,0,0,0,0,0,0,0,0,0,0,0,0,0,0,0,0,0,14.7,0.1803537,0,231.8593,1.575267,0.02717483,6.530185,2.579527,2,20.04448
156.011,29.20445,0,18.78251,-9.699814,4.871902,1.197449,90,91,-0.4275214,0,42.25324,0.2766398,0,0,0.2204027,0.1621758,0.07249172,-1.395701,-41.97764,-39.69193,-3.068565,-12.36911,0,1.07,1244.5,34,22,0,15.29412,14.90196,1.532879,16.36548,0.1,0,173.0667,344.2,0,5.571025,750,73,4256,0.97,15.9903,3.925781,15.9903,3.960938,0,0,0,0,0,0,0,0,0,0,0,0,12.96,0,0,0,0,0,0,0,0,0,94,42,0,0,0,0,0,0,0,0,0,0,0,0,0,0,0,0,0,0,0,0,0,0,0,0,0,0,0,0,0,0,0,0,0,0,0,0,0,0,0,0,0,0,0,0,0,0,0,0,0,0,0,0,0,0,0,14.7,0.03975394,0,231.8593,1.598458,0.02717483,6.435444,2.609641,2,20.04448
157.012,29.20445,0,18.78251,7.967225,1.592041,-6.783004,90,91,-0.4275214,0,42.25324,0.2766398,0,0,0.08601711,-0.1240702,-0.2686673,-1.37718,-42.16318,-38.64154,-2.809605,-12.29903,0,1.07,1244.5,34,22,0,15.29412,14.90196,1.532879,16.36548,0.1,0,173.0667,344.4,0,5.571025,750,73,4256,0.97,15.9903,3.925781,15.9903,3.960938,0,0,0,0,0,0,0,0,0,0,0,0,12.96,0,0,0,0,0,0,0,0,0,94,42,0,0,0,0,0,0,0,0,0,0,0,0,0,0,0,0,0,0,0,0,0,0,0,0,0,0,0,0,0,0,0,0,0,0,0,0,0,0,0,0,0,0,0,0,0,0,0,0,0,0,0,0,0,0,0,14.7,0.03975394,0,231.8593,1.598458,0.02717483,6.435444,2.609641,2,20.04448
158.012,27.34033,0,18.78251,-2.283234,0.1630859,2.28511,90,91,-0.466058,0,42.25324,0.2766398,0,0,-0.4340523,0.2133905,0.5273024,-2.131553,-43.08371,-36.70278,-0.904377,-10.28603,0,1.07,1177,34,22,0,15.29412,15.29412,1.272978,15.47784,0.1,0,170.7171,344.5,0,5.570048,750,73,4256,0.97,15.9903,3.914063,15.9903,3.96875,0,0,0,0,0,0,0,0,0,0,0,0,12.96,0,0,0,0,0,0,0,0,0,94,42,0,0,0,0,0,0,0,0,0,0,0,0,0,0,0,0,0,0,0,0,0,0,0,0,0,0,0,0,0,0,0,0,0,0,0,0,0,0,0,0,0,0,0,0,0,0,0,0,0,0,0,0,0,0,0,14.7,-0.05882612,0,231.8593,1.620457,0.02717483,6.348077,2.63939,2,20.04448
159.012,27.34033,0,18.78251,-1.700516,-5.026123,5.210022,90,91,-0.466058,0,42.25324,0.2766398,0,0,-0.4234992,-0.04980116,-0.5221071,-1.593119,-42.3404,-38.91627,-3.383698,-12.61942,0,1.07,1177,34,22,0,15.29412,15.29412,1.272978,15.47784,0.1,0,170.7171,344.5,0,5.570048,750,73,4256,0.97,15.9903,3.914063,15.9903,3.96875,0,0,0,0,0,0,0,0,0,0,0,0,12.96,0,0,0,0,0,0,0,0,0,94,42,0,0,0,0,0,0,0,0,0,0,0,0,0,0,0,0,0,0,0,0,0,0,0,0,0,0,0,0,0,0,0,0,0,0,0,0,0,0,0,0,0,0,0,0,0,0,0,0,0,0,0,0,0,0,0,14.7,-0.05882612,0,231.8593,1.620457,0.02717483,6.348077,2.63939,2,20.04448
160.012,27.34033,0,18.78251,2.26738,-1.891251,-2.660294,90,91,-0.466058,0,42.25324,0.2766398,0,0,-0.4353376,-0.1263015,0.6804348,-3.172525,-43.425,-38.59678,-5.049164,-12.27272,0,1.07,1177,34,22,0,15.29412,15.29412,1.272978,15.47784,0.1,0,170.7171,344.5,0,5.570048,750,73,4256,0.97,15.9903,3.914063,15.9903,3.96875,0,0,0,0,0,0,0,0,0,0,0,0,12.96,0,0,0,0,0,0,0,0,0,94,42,0,0,0,0,0,0,0,0,0,0,0,0,0,0,0,0,0,0,0,0,0,0,0,0,0,0,0,0,0,0,0,0,0,0,0,0,0,0,0,0,0,0,0,0,0,0,0,0,0,0,0,0,0,0,0,14.7,-0.05882612,0,231.8593,1.620457,0.02717483,6.348077,2.63939,2,20.04448
161.012,26.09759,0,18.78251,2.33844,-0.1949005,8.34549,91,90,-0.3886009,0,42.25324,0.2766398,0,0,0.1045397,-0.2592012,0.2616601,-0.148067,-42.81297,-40.48405,-0.8534889,-13.03975,0,1.05,1095,38,22,0,15.29412,15.68627,1.247816,14.13037,0.08,0,168.5714,344.6,0,5.569131,769,73,4257,0.97,5.072272,3.023438,6.34644,3.253906,0,0,0,0,0,0,0,0,0,0,0,0,14.54,0,0,0,0,0,0,0,0,0,77,44,0,0,0,0,0,0,0,0,0,0,0,0,0,0,0,0,0,0,0,0,0,0,0,0,0,0,0,0,0,0,0,0,0,0,0,0,0,0,0,0,0,0,0,0,0,0,0,0,0,0,0,0,0,0,0,13,-0.1350342,0,73.54794,1.641084,0.02717483,6.268287,2.691889,2,20.04448
162.012,26.09759,0,18.78251,4.622604,6.627609,20.55011,91,90,-0.3886009,0,42.25324,0.2766398,0,0,1.285824,-0.005927407,-0.3227869,5.369419,-38.16472,-37.59971,15.33454,-23.04852,0,1.05,1095,38,22,0,15.29412,15.68627,1.247816,14.13037,0.08,0,168.5714,344.6,0,5.569131,769,73,4257,0.97,5.072272,3.023438,6.34644,3.253906,0,0,0,0,0,0,0,0,0,0,0,0,14.54,0,0,0,0,0,0,0,0,0,77,44,0,0,0,0,0,0,0,0,0,0,0,0,0,0,0,0,0,0,0,0,0,0,0,0,0,0,0,0,0,0,0,0,0,0,0,0,0,0,0,0,0,0,0,0,0,0,0,0,0,0,0,0,0,0,0,13,-0.1350342,0,73.54794,1.641084,0.02717483,6.268287,2.691889,2,20.04448
163.012,24.23348,0,18.78251,-3.77475,1.413727,3.866959,91,90,-0.2881729,0,42.25324,0.2766398,0,0,0.2644703,-0.3749888,-0.01352989,6.986918,-38.34081,-37.66407,16.72836,-22.51317,47.05882,1.05,1488,38,22,0,30.19608,30.19608,0.8987925,18.95497,0.08,0,165.1063,344.7,0,5.567603,769,73,4257,0.97,1.604544,1.378906,1.648464,1.453125,0,0,0,0,0,0,0,0,0,0,0,0,14.54,0,0,0,0,0,0,0,0,0,77,44,0,0,0,0,0,0,0,0,0,0,0,0,0,0,0,0,0,0,0,0,0,0,0,0,0,0,0,0,0,0,0,0,0,0,0,0,0,0,0,0,0,0,0,0,0,0,0,0,0,0,0,0,0,0,0,13,-0.1734029,0,23.26589,1.675525,0.02717483,6.13944,2.721281,2,20.04448
164.012,24.23348,0,18.78251,4.722397,1.010986,-7.94722,91,90,-0.2881729,0,42.25324,0.2766398,0,0,0.03095097,0.3010989,-0.04249929,6.196932,-38.19782,-39.13992,13.35025,-18.96339,47.05882,1.05,1488,38,22,0,30.19608,30.19608,0.8987925,18.95497,0.08,0,165.1063,344.7,0,5.567603,769,73,4257,0.97,1.604544,1.378906,1.648464,1.453125,0,0,0,0,0,0,0,0,0,0,0,0,14.54,0,0,0,0,0,0,0,0,0,77,44,0,0,0,0,0,0,0,0,0,0,0,0,0,0,0,0,0,0,0,0,0,0,0,0,0,0,0,0,0,0,0,0,0,0,0,0,0,0,0,0,0,0,0,0,0,0,0,0,0,0,0,0,0,0,0,13,-0.1734029,0,23.26589,1.675525,0.02717483,6.13944,2.721281,2,20.04448
165.012,24.23348,2.103246,18.78524,6.32489,-2.056976,-4.896927,91,90,-0.1310616,3.981647,42.25324,0.2793715,145.0308,1.571167,-0.09636156,0.2173431,0.01978622,3.323802,-38.72853,-40.44908,10.15243,-18.54327,60.78431,1.06,1594,38,22,0,27.45098,27.45098,0.8458733,20.49864,0.09,6.340685,164.8848,344.8,5.392935,5.567577,769,73,4257,0.97,1.624064,1.394531,1.69336,1.5,0,0,0,0,0,0,0,0,0,0,0,0,14.54,0,0,0,0,0,0,0,0,0,77,44,0,0,0,0,0,0,0,0,0,0,0,0,0,0,0,0,0,0,0,0,0,0,0,0,0,0,0,0,0,0,0,0,0,0,0,0,0,0,0,0,0,0,0,0,0,0,0,0,0,0,0,0,0,0,0,13.4,-0.1894368,0,23.54893,1.694344,0.02744317,6.131202,2.751874,2,20.04448
166.012,24.85485,1.407272,18.78717,5.600754,-1.363846,1.52948,91,90,0.07576728,3.952142,42.25324,0.2812978,94.6134,1.05126,-0.9159518,-0.6554352,0.6295278,0.6194356,-40.161,-40.51632,3.898191,-14.97946,29.01961,1.05,1074.5,38,22,0,20.78431,20.78431,0.4090321,13.68757,0.08,4.242522,164.0496,344.7,3.518177,5.567244,769,73,4257,0.97,2.364848,2.117188,2.302384,2.121094,0,0,0,0,0,0,0,0,0,0,0,0,14.54,0,0,0,0,0,0,0,0,0,77,44,0,0,0,0,0,0,0,0,0,0,0,0,0,0,0,0,0,0,0,0,0,0,0,0,0,0,0,0,0,0,0,0,0,0,0,0,0,0,0,0,0,0,0,0,0,0,0,0,0,0,0,0,0,0,0,13.4,-0.1742833,0,34.29029,1.714712,0.02763239,6.100147,2.781316,2,20.04448
167.012,24.85485,1.407272,18.78717,0.4876557,-4.408539,4.932709,91,90,0.07576728,3.952142,42.25324,0.2812978,94.6134,1.05126,0.3864498,-0.4346862,0.1916617,1.492767,-41.29964,-40.48127,3.280674,-14.03323,29.01961,1.05,1074.5,38,22,0,20.78431,20.78431,0.4090321,13.68757,0.08,4.242522,164.0496,344.8,3.518177,5.567244,769,73,4257,0.97,2.364848,2.117188,2.302384,2.121094,0,0,0,0,0,0,0,0,0,0,0,0,14.54,0,0,0,0,0,0,0,0,0,77,44,0,0,0,0,0,0,0,0,0,0,0,0,0,0,0,0,0,0,0,0,0,0,0,0,0,0,0,0,0,0,0,0,0,0,0,0,0,0,0,0,0,0,0,0,0,0,0,0,0,0,0,0,0,0,0,13.4,-0.1742833,0,34.29029,1.714712,0.02763239,6.100147,2.781316,2,20.04448
168.012,24.23348,0.6531725,18.78803,0.5291595,0.4893188,-0.9581451,91,90,-0.00278199,1.921999,42.25324,0.2821608,45.03995,0.4879328,-0.1585021,-0.3904184,0.2667221,-0.5262955,-41.99692,-39.52776,-0.08273315,-12.34496,0,1.01,1025.5,33,23,0,18.43137,20.78431,0.5899146,12.56573,0.04,1.969128,162.735,344.8,1.6748,5.56665,769,73,4257,0.97,3.119784,2.515625,3.547272,2.714844,0,0,0,0,0,0,0,0,0,0,0,0,14.54,0,0,0,0,0,0,0,0,0,77,44,0,0,0,0,0,0,0,0,0,0,0,0,0,0,0,0,0,0,0,0,0,0,0,0,0,0,0,0,0,0,0,0,0,0,0,0,0,0,0,0,0,0,0,0,0,0,0,0,0,0,0,0,0,0,0,13.4,-0.1899932,0,45.23687,1.733867,0.02771717,6.051264,2.816636,2,20.04448
169.012,24.23348,0.6531725,18.78803,0.7118683,-10.08867,2.982773,91,90,-0.00278199,1.921999,42.25324,0.2821608,45.03995,0.4879328,-0.06707962,-0.4254305,-0.333475,-0.4726555,-45.3696,-41.23077,3.862497,-14.07979,0,1.01,1025.5,33,23,0,18.43137,20.78431,0.5899146,12.56573,0.04,1.969128,162.735,344.8,1.6748,5.56665,769,73,4257,0.97,3.119784,2.515625,3.547272,2.714844,0,0,0,0,0,0,0,0,0,0,0,0,14.54,0,0,0,0,0,0,0,0,0,77,44,0,0,0,0,0,0,0,0,0,0,0,0,0,0,0,0,0,0,0,0,0,0,0,0,0,0,0,0,0,0,0,0,0,0,0,0,0,0,0,0,0,0,0,0,0,0,0,0,0,0,0,0,0,0,0,13.4,-0.1899932,0,45.23687,1.733867,0.02771717,6.051264,2.816636,2,20.04448
170.012,22.36936,0,18.78803,-5.211472,-12.5372,10.8956,91,90,-0.2742003,0,42.25324,0.2821608,0,0,-0.2142546,-0.5768321,0.5674337,2.69668,-44.44677,-41.41734,4.222731,-11.75243,45.09804,1.03,1500.5,33,23,0,26.66667,29.41176,1.049467,19.05634,0.06,0,160.7605,344.8,0,5.565706,769,73,4257,0.97,1.657736,1.445313,1.66652,1.480469,0,0,0,0,0,0,0,0,0,0,0,0,14.54,0,0,0,0,0,0,0,0,0,77,44,0,0,0,0,0,0,0,0,0,0,0,0,0,0,0,0,0,0,0,0,0,0,0,0,0,0,0,0,0,0,0,0,0,0,0,0,0,0,0,0,0,0,0,0,0,0,0,0,0,0,0,0,0,0,0,13.4,-0.2291234,0,24.03717,1.755163,0.02771717,5.97784,2.84579,2,20.04448
171.014,22.36936,0,18.78803,-1.730713,1.943741,2.946518,91,90,-0.2742003,0,42.25324,0.2821608,0,0,0.4144044,-0.1686358,0.7354651,-0.009727682,-44.1396,-40.44823,1.722864,-13.23544,45.09804,1.03,1500.5,33,23,0,26.66667,29.41176,1.049467,19.05634,0.06,0,160.7605,344.8,0,5.565706,769,73,4257,0.97,1.657736,1.445313,1.66652,1.480469,0,0,0,0,0,0,0,0,0,0,0,0,14.54,0,0,0,0,0,0,0,0,0,77,44,0,0,0,0,0,0,0,0,0,0,0,0,0,0,0,0,0,0,0,0,0,0,0,0,0,0,0,0,0,0,0,0,0,0,0,0,0,0,0,0,0,0,0,0,0,0,0,0,0,0,0,0,0,0,0,13.4,-0.2291234,0,24.03717,1.755163,0.02771717,5.97784,2.84579,2,20.04448
172.012,22.99073,1.718615,18.79027,4.015472,7.117508,3.525574,91,90,-0.115833,3.38076,42.25324,0.2843945,124.9141,1.28384,-0.4046144,-0.5168164,-0.121379,-3.313551,-45.99927,-40.73428,-1.353943,-14.14334,58.03922,1.05,1534,33,23,0,30.58824,33.33333,0.7037342,19.86008,0.08,5.181132,160.3987,344.8,4.644902,5.565575,769,73,4257,0.97,1.495232,1.210938,1.497672,1.226563,0,0,0,0,0,0,0,0,0,0,0,0,14.54,0,0,0,0,0,0,0,0,0,77,44,0,0,0,0,0,0,0,0,0,0,0,0,0,0,0,0,0,0,0,0,0,0,0,0,0,0,0,0,0,0,0,0,0,0,0,0,0,0,0,0,0,0,0,0,0,0,0,0,0,0,0,0,0,0,0,13,-0.2131598,0,21.68086,1.773047,0.02793659,5.964389,2.876207,2,20.04448
173.012,22.99073,1.718615,18.79027,-1.148499,0.232254,-6.362839,91,90,-0.115833,3.38076,42.25324,0.2843945,124.9141,1.28384,-0.1245844,0.2028865,-0.5074007,-3.079026,-44.93592,-40.45675,-1.725571,-14.07048,58.03922,1.05,1534,33,23,0,30.58824,33.33333,0.7037342,19.86008,0.08,5.181132,160.3987,344.9,4.644902,5.565575,769,73,4257,0.97,1.495232,1.210938,1.497672,1.226563,0,0,0,0,0,0,0,0,0,0,0,0,14.54,0,0,0,0,0,0,0,0,0,77,44,0,0,0,0,0,0,0,0,0,0,0,0,0,0,0,0,0,0,0,0,0,0,0,0,0,0,0,0,0,0,0,0,0,0,0,0,0,0,0,0,0,0,0,0,0,0,0,0,0,0,0,0,0,0,0,13,-0.2131598,0,21.68086,1.773047,0.02793659,5.964389,2.876207,2,20.04448
174.013,24.23348,2.524354,18.79372,-0.1248169,4.040726,3.018906,91,90,0.2316424,5.810435,42.25324,0.2878465,174.0686,1.885743,0.4080441,-0.1640856,-0.4183412,-0.8973305,-43.88644,-41.825,0.4728355,-14.33759,61.96078,1.11,1311,33,23,0,35.68628,35.68628,0.7856464,17.94287,0.14,7.610206,160.5508,345,6.472699,5.565718,769,73,4257,0.97,1.168272,0.4921875,1.184376,0.5507813,0,0,0,0,0,0,0,0,0,0,0,0,14.54,0,0,0,0,0,0,0,0,0,77,44,0,0,0,0,0,0,0,0,0,0,0,0,0,0,0,0,0,0,0,0,0,0,0,0,0,0,0,0,0,0,0,0,0,0,0,0,0,0,0,0,0,0,0,0,0,0,0,0,0,0,0,0,0,0,0,13,-0.1442043,0,16.93994,1.792868,0.02827568,5.970046,2.905615,2,20.04448
175.013,24.23348,2.524354,18.79372,-1.620911,-3.612381,13.71165,91,90,0.2316424,5.810435,42.25324,0.2878465,174.0686,1.885743,-0.37731,-0.4148652,1.48317,1.366074,-44.24953,-43.29725,4.993469,-15.08023,61.96078,1.11,1311,33,23,0,35.68628,35.68628,0.7856464,17.94287,0.14,7.610206,160.5508,345,6.472699,5.565718,769,73,4257,0.97,1.168272,0.4921875,1.184376,0.5507813,0,0,0,0,0,0,0,0,0,0,0,0,14.54,0,0,0,0,0,0,0,0,0,77,44,0,0,0,0,0,0,0,0,0,0,0,0,0,0,0,0,0,0,0,0,0,0,0,0,0,0,0,0,0,0,0,0,0,0,0,0,0,0,0,0,0,0,0,0,0,0,0,0,0,0,0,0,0,0,0,13,-0.1442043,0,16.93994,1.792868,0.02827568,5.970046,2.905615,2,20.04448
176.013,25.47622,3.117474,18.79785,2.6689,3.370148,-1.152847,91,90,0.3084644,8.002786,42.25324,0.2919746,204.4813,2.328815,0.05409542,0.01255453,0.1943337,0.3320794,-42.74939,-42.06783,4.995649,-16.14073,100,1.22,1175.5,38,23,0,39.21569,39.60784,1.063425,17.68271,0.25,9.39829,161.0393,345.1,7.603589,5.566045,769,73,4257,0.97,1.170224,0.5273438,1.1712,0.5273438,0,0,0,0,0,0,0,0,0,0,0,0,14.54,0,0,0,0,0,0,0,0,0,77,44,0,0,0,0,0,0,0,0,0,0,0,0,0,0,0,0,0,0,0,0,0,0,0,0,0,0,0,0,0,0,0,0,0,0,0,0,0,0,0,0,0,0,0,0,0,0,0,0,0,0,0,0,0,0,0,13,-0.06596261,0,16.96825,1.813064,0.0286812,5.988209,2.940982,2,20.04448
177.013,25.47622,3.117474,18.79785,5.969589,2.288834,2.703232,91,90,0.3084644,8.002786,42.25324,0.2919746,204.4813,2.328815,-0.1814849,-0.06084178,-0.1159989,-0.3485698,-43.60432,-42.48896,4.143915,-16.56566,100,1.22,1175.5,38,23,0,39.21569,39.60784,1.063425,17.68271,0.25,9.39829,161.0393,345.2,7.603589,5.566045,769,73,4257,0.97,1.170224,0.5273438,1.1712,0.5273438,0,0,0,0,0,0,0,0,0,0,0,0,14.54,0,0,0,0,0,0,0,0,0,77,44,0,0,0,0,0,0,0,0,0,0,0,0,0,0,0,0,0,0,0,0,0,0,0,0,0,0,0,0,0,0,0,0,0,0,0,0,0,0,0,0,0,0,0,0,0,0,0,0,0,0,0,0,0,0,0,13,-0.06596261,0,16.96825,1.813064,0.0286812,5.988209,2.940982,2,20.04448
178.013,27.9617,4.958193,18.80574,11.55826,7.078949,8.091461,91,90,0.4173845,11.9028,42.25324,0.2998654,296.3094,3.703868,0.7418129,-0.2663116,0.4015718,0.3791405,-43.86293,-42.68289,5.830187,-16.3912,85.4902,1.26,1257,38,23,0,34.90196,34.90196,1.187846,19.21483,0.29,14.94753,162.9971,345.2,11.0182,5.567201,769,73,4257,0.97,1.375184,0.9570313,1.35664,0.953125,0,0,0,0,0,0,0,0,0,0,0,0,14.54,0,0,0,0,0,0,0,0,0,77,44,0,0,0,0,0,0,0,0,0,0,0,0,0,0,0,0,0,0,0,0,0,0,0,0,0,0,0,0,0,0,0,0,0,0,0,0,0,0,0,0,0,0,0,0,0,0,0,0,0,0,0,0,0,0,0,13,0.03248418,0,19.94017,1.839697,0.02945633,6.06101,2.971106,2,20.04448
179.013,27.9617,4.958193,18.80574,2.120834,-2.606918,-11.47711,91,90,0.4173845,11.9028,42.25324,0.2998654,296.3094,3.703868,-0.4545292,-0.3864603,-0.06368098,0.03626325,-43.4272,-42.36137,5.754471,-16.96661,85.4902,1.26,1257,38,23,0,34.90196,34.90196,1.187846,19.21483,0.29,14.94753,162.9971,345.3,11.0182,5.567201,769,73,4257,0.97,1.375184,0.9570313,1.35664,0.953125,0,0,0,0,0,0,0,0,0,0,0,0,14.54,0,0,0,0,0,0,0,0,0,77,44,0,0,0,0,0,0,0,0,0,0,0,0,0,0,0,0,0,0,0,0,0,0,0,0,0,0,0,0,0,0,0,0,0,0,0,0,0,0,0,0,0,0,0,0,0,0,0,0,0,0,0,0,0,0,0,13,0.03248418,0,19.94017,1.839697,0.02945633,6.06101,2.971106,2,20.04448
180.013,29.20445,3.946008,18.81105,-1.855499,2.02652,-0.0818634,91,90,0.4150017,9.089662,42.25324,0.3051744,225.7848,2.947747,-0.8142608,-0.1292291,0.7759354,-1.038456,-43.25813,-41.70564,2.302046,-16.75861,92.54902,1.22,1310,38,23,0,36.86274,37.2549,1.034107,19.38929,0.25,11.89608,163.7899,345.4,8.395757,5.567731,789,73,4257,0.97,1.278072,0.7929688,1.284416,0.8242188,0,0,0,0,0,0,0,0,0,0,0,0,12.94,0,0,0,0,0,0,0,0,0,85,44,0,0,0,0,0,0,0,0,0,0,0,0,0,0,0,0,0,0,0,0,0,0,0,0,0,0,0,0,0,0,0,0,0,0,0,0,0,0,0,0,0,0,0,0,0,0,0,0,0,0,0,0,0,0,0,13,0.09475789,0,18.53204,1.863207,0.02997784,6.090487,3.008613,2,20.04448
181.013,29.20445,3.946008,18.81105,-6.801575,6.923416,-0.5925751,91,90,0.4150017,9.089662,42.25324,0.3051744,225.7848,2.947747,0.2870218,-0.1406764,0.8217103,1.094903,-43.55828,-42.78828,7.523262,-18.08641,92.54902,1.22,1310,38,23,0,36.86274,37.2549,1.034107,19.38929,0.25,11.89608,163.7899,345.4,8.395757,5.567731,789,73,4257,0.97,1.278072,0.7929688,1.284416,0.8242188,0,0,0,0,0,0,0,0,0,0,0,0,12.94,0,0,0,0,0,0,0,0,0,85,44,0,0,0,0,0,0,0,0,0,0,0,0,0,0,0,0,0,0,0,0,0,0,0,0,0,0,0,0,0,0,0,0,0,0,0,0,0,0,0,0,0,0,0,0,0,0,0,0,0,0,0,0,0,0,0,13,0.09475789,0,18.53204,1.863207,0.02997784,6.090487,3.008613,2,20.04448
182.013,31.06856,4.461444,18.81855,3.304291,2.263092,-7.172058,91,90,0.3401188,9.723968,42.25324,0.3126826,239.9607,3.332787,0.1495737,-0.2520392,-0.3487527,0.4800611,-43.36622,-42.34969,5.717524,-17.83459,78.82353,1.23,1384.5,38,23,0,36.47059,36.86274,1.036314,20.65993,0.26,13.44998,165.0612,345.5,8.922881,5.568573,789,73,4257,0.97,1.231224,0.671875,1.270752,0.7578125,0,0,0,0,0,0,0,0,0,0,0,0,12.94,0,0,0,0,0,0,0,0,0,85,44,0,0,0,0,0,0,0,0,0,0,0,0,0,0,0,0,0,0,0,0,0,0,0,0,0,0,0,0,0,0,0,0,0,0,0,0,0,0,0,0,0,0,0,0,0,0,0,0,0,0,0,0,0,0,0,13,0.1581425,0,17.85275,1.894343,0.03071538,6.137761,3.038092,2,20.04448
183.013,31.06856,4.461444,18.81855,0.2948761,0.30867,-5.259033,91,90,0.3401188,9.723968,42.25324,0.3126826,239.9607,3.332787,-0.01417661,0.1368584,-0.4063863,-0.9579316,-44.15052,-42.05771,6.581947,-18.79933,78.82353,1.23,1384.5,38,23,0,36.47059,36.86274,1.036314,20.65993,0.26,13.44998,165.0612,345.5,8.922881,5.568573,789,73,4257,0.97,1.231224,0.671875,1.270752,0.7578125,0,0,0,0,0,0,0,0,0,0,0,0,12.94,0,0,0,0,0,0,0,0,0,85,44,0,0,0,0,0,0,0,0,0,0,0,0,0,0,0,0,0,0,0,0,0,0,0,0,0,0,0,0,0,0,0,0,0,0,0,0,0,0,0,0,0,0,0,0,0,0,0,0,0,0,0,0,0,0,0,13,0.1581425,0,17.85275,1.894343,0.03071538,6.137761,3.038092,2,20.04448
184.013,32.3113,3.227629,18.82281,4.931137,-2.531464,3.701508,91,90,0.3422381,8.770535,42.25324,0.3169383,166.9225,2.411103,-1.427054,-0.3251749,-0.6210276,-3.655336,-43.88926,-40.59436,3.155514,-19.71841,84.31373,1.19,1110.5,36,22,0,34.90196,34.90196,0.8329021,16.03232,0.22,9.730376,165.0719,345.7,6.206974,5.568695,789,73,4257,0.97,1.309304,0.859375,1.309304,0.8632813,0,0,0,0,0,0,0,0,0,0,0,0,12.94,0,0,0,0,0,0,0,0,0,85,44,0,0,0,0,0,0,0,0,0,0,0,0,0,0,0,0,0,0,0,0,0,0,0,0,0,0,0,0,0,0,0,0,0,0,0,0,0,0,0,0,0,0,0,0,0,0,0,0,0,0,0,0,0,0,0,13,0.1894178,0,18.98491,1.920002,0.03113343,6.13816,3.073113,2,20.04448
185.013,32.3113,3.227629,18.82281,9.550964,-3.48825,-0.8625336,91,90,0.3422381,8.770535,42.25324,0.3169383,166.9225,2.411103,-0.445886,0.2587048,0.2839929,-1.720976,-43.3108,-41.65058,5.615179,-19.03397,84.31373,1.19,1110.5,36,22,0,34.90196,34.90196,0.8329021,16.03232,0.22,9.730376,165.0719,345.7,6.206974,5.568695,789,73,4257,0.97,1.309304,0.859375,1.309304,0.8632813,0,0,0,0,0,0,0,0,0,0,0,0,12.94,0,0,0,0,0,0,0,0,0,85,44,0,0,0,0,0,0,0,0,0,0,0,0,0,0,0,0,0,0,0,0,0,0,0,0,0,0,0,0,0,0,0,0,0,0,0,0,0,0,0,0,0,0,0,0,0,0,0,0,0,0,0,0,0,0,0,13,0.1894178,0,18.98491,1.920002,0.03113343,6.13816,3.073113,2,20.04448
186.013,33.55404,3.610378,18.82849,-3.364014,5.064819,-1.379028,91,90,0.2888484,9.490121,42.25324,0.3226223,179.8016,2.697023,0.05170897,0.08847778,-0.0320576,-0.5608764,-42.6358,-41.63038,9.24194,-21.19331,83.13725,1.2,1148,36,22,0,35.68628,36.47059,1.078933,16.8211,0.23,10.88425,165.324,345.8,6.685879,5.568983,789,73,4257,0.97,1.278072,0.78125,1.270752,0.7773438,0,0,0,0,0,0,0,0,0,0,0,0,12.94,0,0,0,0,0,0,0,0,0,85,44,0,0,0,0,0,0,0,0,0,0,0,0,0,0,0,0,0,0,0,0,0,0,0,0,0,0,0,0,0,0,0,0,0,0,0,0,0,0,0,0,0,0,0,0,0,0,0,0,0,0,0,0,0,0,0,13,0.2007588,0,18.53204,1.951455,0.03169178,6.147534,3.102221,2,20.04448
187.013,34.17542,3.669501,18.83326,-8.034546,9.488434,-0.271637,91,90,0.2124376,9.340422,42.25324,0.3273836,179.4234,2.74119,0.07159722,0.07601943,-0.4871,-2.505901,-43.14326,-40.75795,8.441769,-21.32597,83.13725,1.22,1185.5,36,22,0,34.5098,34.5098,1.075791,17.66008,0.25,11.06249,165.5133,345.8,6.671815,5.569216,789,73,4257,0.97,1.423008,1.078125,1.401536,1.0625,0,0,0,0,0,0,0,0,0,0,0,0,12.94,0,0,0,0,0,0,0,0,0,85,44,0,0,0,0,0,0,0,0,0,0,0,0,0,0,0,0,0,0,0,0,0,0,0,0,0,0,0,0,0,0,0,0,0,0,0,0,0,0,0,0,0,0,0,0,0,0,0,0,0,0,0,0,0,0,0,13,0.2324618,0,20.63362,1.97799,0.03215949,6.154572,3.13263,2,20.04448
188.017,34.17542,3.669501,18.83326,5.173325,1.355713,4.711685,91,90,0.2124376,9.340422,42.25324,0.3273836,179.4234,2.74119,0.01380694,0.3324986,-0.4351142,-3.499552,-42.30451,-39.79058,5.948009,-21.81558,83.13725,1.22,1185.5,36,22,0,34.5098,34.5098,1.075791,17.66008,0.25,11.06249,165.5133,345.9,6.671815,5.569216,789,73,4257,0.97,1.423008,1.078125,1.401536,1.0625,0,0,0,0,0,0,0,0,0,0,0,0,12.94,0,0,0,0,0,0,0,0,0,85,44,0,0,0,0,0,0,0,0,0,0,0,0,0,0,0,0,0,0,0,0,0,0,0,0,0,0,0,0,0,0,0,0,0,0,0,0,0,0,0,0,0,0,0,0,0,0,0,0,0,0,0,0,0,0,0,13,0.2324618,0,20.63362,1.97799,0.03215949,6.154572,3.13263,2,20.04448
189.014,34.79679,3.19013,18.83761,4.618896,-4.580826,-2.115845,91,90,0.1554789,8.059038,42.25324,0.331743,153.1987,2.38309,-0.1976379,0.3055763,-0.2795244,-4.695872,-41.96991,-38.62587,3.228142,-21.3896,69.41177,1.14,1194.5,36,22,0,31.37255,30.98039,0.9056696,16.62732,0.17,9.617328,165.3258,345.9,5.696656,5.569238,789,73,4257,0.97,1.5738,1.328125,1.551352,1.3125,0,0,0,0,0,0,0,0,0,0,0,0,12.94,0,0,0,0,0,0,0,0,0,85,44,0,0,0,0,0,0,0,0,0,0,0,0,0,0,0,0,0,0,0,0,0,0,0,0,0,0,0,0,0,0,0,0,0,0,0,0,0,0,0,0,0,0,0,0,0,0,0,0,0,0,0,0,0,0,0,13,0.2866946,0,22.8201,2.006601,0.03258772,6.147603,3.161656,2,20.04448
190.014,34.79679,3.19013,18.83761,-12.04626,5.655045,-4.682144,91,90,0.1554789,8.059038,42.25324,0.331743,153.1987,2.38309,0.3036396,-0.3853171,0.06297803,-3.49694,-42.83379,-40.20363,6.134607,-21.47791,69.41177,1.14,1194.5,36,22,0,31.37255,30.98039,0.9056696,16.62732,0.17,9.617328,165.3258,346,5.696656,5.569238,789,73,4257,0.97,1.5738,1.328125,1.551352,1.3125,0,0,0,0,0,0,0,0,0,0,0,0,12.94,0,0,0,0,0,0,0,0,0,85,44,0,0,0,0,0,0,0,0,0,0,0,0,0,0,0,0,0,0,0,0,0,0,0,0,0,0,0,0,0,0,0,0,0,0,0,0,0,0,0,0,0,0,0,0,0,0,0,0,0,0,0,0,0,0,0,13,0.2866946,0,22.8201,2.006601,0.03258772,6.147603,3.161656,2,20.04448
191.014,35.41816,2.533434,18.8409,3.485794,6.166672,-4.315399,91,90,0.1554929,6.323307,42.25324,0.3350285,119.5279,1.892525,0.454976,0.130488,0.7574328,-3.651039,-43.35876,-39.5181,5.022427,-21.44684,62.35294,1.08,1209,35,22,0,26.66667,26.66667,0.8549662,15.94342,0.11,7.637577,164.7063,346,4.444617,5.568992,789,73,4257,0.97,1.596248,1.371094,1.599664,1.390625,0,0,0,0,0,0,0,0,0,0,0,0,12.94,0,0,0,0,0,0,0,0,0,85,44,0,0,0,0,0,0,0,0,0,0,0,0,0,0,0,0,0,0,0,0,0,0,0,0,0,0,0,0,0,0,0,0,0,0,0,0,0,0,0,0,0,0,0,0,0,0,0,0,0,0,0,0,0,0,0,13,0.286727,0,23.1456,2.034096,0.03291046,6.124566,3.197391,2,20.04448
192.014,35.41816,2.533434,18.8409,0.05310059,63.56158,57.33111,91,90,0.1554929,6.323307,42.25324,0.3350285,119.5279,1.892525,-0.9635201,0.7522717,-1.335196,-5.042039,-41.67104,-36.99232,3.222073,-23.29477,62.35294,1.08,1209,35,22,0,26.66667,26.66667,0.8549662,15.94342,0.11,7.637577,164.7063,346,4.444617,5.568992,789,73,4257,0.97,1.596248,1.371094,1.599664,1.390625,0,0,0,0,0,0,0,0,0,0,0,0,12.94,0,0,0,0,0,0,0,0,0,85,44,0,0,0,0,0,0,0,0,0,0,0,0,0,0,0,0,0,0,0,0,0,0,0,0,0,0,0,0,0,0,0,0,0,0,0,0,0,0,0,0,0,0,0,0,0,0,0,0,0,0,0,0,0,0,0,13,0.286727,0,23.1456,2.034096,0.03291046,6.124566,3.197391,2,20.04448
193.014,36.03953,1.950943,18.84403,-10.43452,2.888,-3.407608,91,90,0.1453248,4.879534,42.25324,0.3381591,90.45889,1.457393,-0.4081079,0.3477093,-1.071993,-7.202849,-46.02729,-28.60057,17.98399,-32.10062,54.90196,1.05,1206.5,35,22,0,24.70588,44.70588,0.7217935,15.51869,0.08,5.881535,163.493,346.1,3.363693,5.568401,789,73,4257,0.97,1.161928,0.5039063,1.176568,0.546875,0,0,0,0,0,0,0,0,0,0,0,0,12.94,0,0,0,0,0,0,0,0,0,85,44,0,0,0,0,0,0,0,0,0,0,0,0,0,0,0,0,0,0,0,0,0,0,0,0,0,0,0,0,0,0,0,0,0,0,0,0,0,0,0,0,0,0,0,0,0,0,0,0,0,0,0,0,0,0,0,13,0.2694311,0,16.84796,2.06834,0.03321799,6.079448,3.226498,2,20.04448
